File: 382_U1538A_XRF.csv
Expedition,Site,Hole,Core,Type,Section,A/W,Offset (mm),CSF-A (m),CSF-B (m),Test No.,TextID,Voltage (kV),Tube Current (mA),Live Time (s),Real Time (s),Down-Core Slit (mm),Cross-Core Slit (mm),Filter,Total Counts Per Second,Mg-Ka Area,Al-Ka Area,Si-Ka Area,P -Ka Area,S -Ka Area,Cl-Ka Area,Ar-Ka Area,K -Ka Area,Ca-Ka Area,Ti-Ka Area,Cr-Ka Area,Mn-Ka Area,Fe-Ka Area,Rh-La-Coh Area,Instrument,Scan Number,Date of Measure,Time of Measure,Uploaded By,Date Uploaded,Comment
382,U1538,A,4,H,4,A,40.0,31.34,31.326,44596472,SHLF9961561,10,0.16,6,7,10,12,No-Filter,123435,-45,2284,69051,137,1931,72905,-2692,20987,21443,10870,-81,1735,120755,42471,XRF2,1,2019-10-09,16:05:25,LEVAY_B,2019-11-05 16:39:02,~1mm accessory; with film; XRF 2
382,U1538,A,4,H,4,A,120.0,31.42,31.406,44596472,SHLF9961561,10,0.16,6,7,10,12,No-Filter,122759,-47,2104,67312,79,1800,73160,-3124,20333,21171,10863,101,1747,117487,43300,XRF2,1,2019-10-09,16:05:59,LEVAY_B,2019-11-05 16:39:02,~1mm accessory; with film; XRF 2
382,U1538,A,4,H,4,A,200.0,31.5,31.486,44596472,SHLF9961561,10,0.16,6,7,10,12,No-Filter,129753,21,3196,84828,249,1706,66380,-3544,24649,25942,12885,34,1616,135946,42674,XRF2,1,2019-10-09,16:06:34,LEVAY_B,2019-11-05 16:39:02,~1mm accessory; with film; XRF 2
382,U1538,A,4,H,4,A,280.0,31.58,31.566,44596472,SHLF9961561,10,0.16,6,7,10,12,No-Filter,132207,14,3874,98462,229,1713,59211,-3481,27795,27981,14218,283,2164,139057,41642,XRF2,1,2019-10-09,16:07:08,LEVAY_B,2019-11-05 16:39:02,~1mm accessory; with film; XRF 2
382,U1538,A,4,H,4,A,360.0,31.66,31.646,44596472,SHLF9961561,10,0.16,6,7,10,12,No-Filter,130385,13,3916,94399,190,1422,58629,-2930,27336,28368,14218,334,2003,138535,40381,XRF2,1,2019-10-09,16:07:43,LEVAY_B,2019-11-05 16:39:02,~1mm accessory; with film; XRF 2
382,U1538,A,4,H,4,A,440.0,31.74,31.726,44596472,SHLF9961561,10,0.16,6,7,10,12,No-Filter,128783,-6,2931,72189,234,1475,70788,-3136,25190,27388,13848,427,1948,137595,42900,XRF2,1,2019-10-09,16:08:17,LEVAY_B,2019-11-05 16:39:02,~1mm accessory; with film; XRF 2
382,U1538,A,4,H,4,A,520.0,31.82,31.806,44596472,SHLF9961561,10,0.16,6,7,10,12,No-Filter,134865,27,3753,82701,305,1509,65908,-3442,28160,30089,15112,199,2019,153909,42491,XRF2,1,2019-10-09,16:08:52,LEVAY_B,2019-11-05 16:39:02,~1mm accessory; with film; XRF 2
382,U1538,A,4,H,4,A,600.0,31.9,31.886,44596472,SHLF9961561,10,0.16,6,8,10,12,No-Filter,141843,30,4397,91535,321,1397,57247,-3251,33948,36912,17478,308,2450,178900,41382,XRF2,1,2019-10-09,16:09:26,LEVAY_B,2019-11-05 16:39:02,~1mm accessory; with film; XRF 2
382,U1538,A,4,H,4,A,680.0,31.98,31.966,44596472,SHLF9961561,10,0.16,6,8,10,12,No-Filter,144091,36,5258,96671,339,1101,55881,-3169,34874,40633,19067,502,2608,183384,40438,XRF2,1,2019-10-09,16:10:00,LEVAY_B,2019-11-05 16:39:02,~1mm accessory; with film; XRF 2
382,U1538,A,4,H,4,A,760.0,32.06,32.046,44596472,SHLF9961561,10,0.16,6,7,10,12,No-Filter,141824,21,4613,89569,244,1583,61200,-3668,32599,39301,17820,388,2959,173663,41919,XRF2,1,2019-10-09,16:10:35,LEVAY_B,2019-11-05 16:39:02,~1mm accessory; with film; XRF 2
382,U1538,A,4,H,4,A,840.0,32.14,32.126,44596472,SHLF9961561,10,0.16,6,7,10,12,No-Filter,137415,-4,4114,85617,250,1262,62400,-3286,29957,37021,17513,183,2341,162720,41842,XRF2,1,2019-10-09,16:11:09,LEVAY_B,2019-11-05 16:39:02,~1mm accessory; with film; XRF 2
382,U1538,A,4,H,4,A,920.0,32.22,32.206,44596472,SHLF9961561,10,0.16,6,7,10,12,No-Filter,133419,54,3391,78849,229,1255,65958,-3590,26070,33192,15231,271,2269,151993,42778,XRF2,1,2019-10-09,16:11:44,LEVAY_B,2019-11-05 16:39:02,~1mm accessory; with film; XRF 2
382,U1538,A,4,H,4,A,1000.0,32.3,32.286,44596472,SHLF9961561,10,0.16,6,7,10,12,No-Filter,133117,19,3596,88449,176,1055,62926,-3412,26341,33363,15113,399,2190,145053,41777,XRF2,1,2019-10-09,16:12:18,LEVAY_B,2019-11-05 16:39:02,~1mm accessory; with film; XRF 2
382,U1538,A,4,H,4,A,1080.0,32.38,32.366,44596472,SHLF9961561,10,0.16,6,7,10,12,No-Filter,131464,-7,3825,91747,148,1511,60713,-3082,26386,32789,14944,499,2281,141145,40516,XRF2,1,2019-10-09,16:12:53,LEVAY_B,2019-11-05 16:39:02,~1mm accessory; with film; XRF 2
382,U1538,A,4,H,4,A,1160.0,32.46,32.446,44596472,SHLF9961561,10,0.16,6,7,10,12,No-Filter,129035,-48,2841,77361,210,1563,69640,-3142,23628,29046,13444,208,2162,133466,43396,XRF2,1,2019-10-09,16:13:27,LEVAY_B,2019-11-05 16:39:02,~1mm accessory; with film; XRF 2
382,U1538,A,4,H,4,A,1240.0,32.54,32.526,44596472,SHLF9961561,10,0.16,6,7,10,12,No-Filter,124698,-62,2523,68991,195,1755,70847,-3126,21062,26477,12801,117,1948,127645,42962,XRF2,1,2019-10-09,16:14:02,LEVAY_B,2019-11-05 16:39:02,~1mm accessory; with film; XRF 2
382,U1538,A,4,H,4,A,1320.0,32.62,32.606,44596472,SHLF9961561,10,0.16,6,7,10,12,No-Filter,126292,14,2659,72063,203,2102,71128,-3157,22128,27172,13199,-140,2201,131953,41603,XRF2,1,2019-10-09,16:14:36,LEVAY_B,2019-11-05 16:39:02,~1mm accessory; with film; XRF 2
382,U1538,A,4,H,4,A,1400.0,32.7,32.686,44596472,SHLF9961561,10,0.16,6,7,10,12,No-Filter,118279,-44,2234,59501,161,1992,71545,-2622,19812,24672,11458,156,1787,120200,41033,XRF2,1,2019-10-09,16:15:11,LEVAY_B,2019-11-05 16:39:02,~1mm accessory; with film; XRF 2
382,U1538,A,4,H,5,A,40.0,32.84,32.821,44596482,SHLF9961591,10,0.16,6,7,10,12,No-Filter,117611,-14,2397,69662,121,1880,59738,-2274,21379,24990,12132,146,1653,125684,39101,XRF2,1,2019-10-09,16:32:05,LEVAY_B,2019-11-05 16:39:06,~1mm accessory; with film; XRF 2
382,U1538,A,4,H,5,A,120.0,32.92,32.901,44596482,SHLF9961591,10,0.16,6,7,10,12,No-Filter,123050,-14,2109,63041,64,1646,74840,-3104,19855,24119,11937,-78,1871,121672,42517,XRF2,1,2019-10-09,16:32:40,LEVAY_B,2019-11-05 16:39:06,~1mm accessory; with film; XRF 2
382,U1538,A,4,H,5,A,200.0,33.0,32.981,44596482,SHLF9961591,10,0.16,6,7,10,12,No-Filter,126176,-26,3118,77499,111,1738,66771,-3224,22773,27710,12982,-39,2135,131817,41632,XRF2,1,2019-10-09,16:33:14,LEVAY_B,2019-11-05 16:39:06,~1mm accessory; with film; XRF 2
382,U1538,A,4,H,5,A,280.0,33.08,33.061,44596482,SHLF9961591,10,0.16,6,7,10,12,No-Filter,122196,-7,2831,82138,241,2158,58866,-3091,21873,24539,12263,102,1727,126418,39511,XRF2,1,2019-10-09,16:33:49,LEVAY_B,2019-11-05 16:39:06,~1mm accessory; with film; XRF 2
382,U1538,A,4,H,5,A,360.0,33.16,33.141,44596482,SHLF9961591,10,0.16,6,7,10,12,No-Filter,121795,2,2687,76771,127,1949,64119,-3082,20969,23905,11690,155,2106,122102,40988,XRF2,1,2019-10-09,16:34:24,LEVAY_B,2019-11-05 16:39:06,~1mm accessory; with film; XRF 2
382,U1538,A,4,H,5,A,440.0,33.24,33.221,44596482,SHLF9961591,10,0.16,6,7,10,12,No-Filter,117871,-53,2586,70818,96,1778,61056,-2338,21434,23360,11697,119,2102,120675,40123,XRF2,1,2019-10-09,16:34:58,LEVAY_B,2019-11-05 16:39:06,~1mm accessory; with film; XRF 2
382,U1538,A,4,H,5,A,520.0,33.32,33.301,44596482,SHLF9961591,10,0.16,6,7,10,12,No-Filter,125207,-34,2903,75889,181,1627,67825,-3333,23954,23523,13111,209,1960,126778,42856,XRF2,1,2019-10-09,16:35:33,LEVAY_B,2019-11-05 16:39:06,~1mm accessory; with film; XRF 2
382,U1538,A,4,H,5,A,600.0,33.4,33.381,44596482,SHLF9961591,10,0.16,6,7,10,12,No-Filter,127244,-51,3749,93818,244,1634,57482,-2917,26726,25136,13627,249,1608,131400,40624,XRF2,1,2019-10-09,16:36:07,LEVAY_B,2019-11-05 16:39:06,~1mm accessory; with film; XRF 2
382,U1538,A,4,H,5,A,680.0,33.48,33.461,44596482,SHLF9961591,10,0.16,6,7,10,12,No-Filter,122926,34,3099,82012,329,2396,56729,-3098,24220,24743,13309,170,1928,133715,38819,XRF2,1,2019-10-09,16:36:42,LEVAY_B,2019-11-05 16:39:06,~1mm accessory; with film; XRF 2
382,U1538,A,4,H,5,A,760.0,33.56,33.541,44596482,SHLF9961591,10,0.16,6,7,10,12,No-Filter,119795,-29,2944,85508,169,1631,54394,-3164,21588,24221,12233,230,1689,123038,38502,XRF2,1,2019-10-09,16:37:16,LEVAY_B,2019-11-05 16:39:06,~1mm accessory; with film; XRF 2
382,U1538,A,4,H,5,A,840.0,33.64,33.621,44596482,SHLF9961591,10,0.16,6,7,10,12,No-Filter,122409,3,3190,86770,249,1863,55523,-2872,21675,26114,13024,447,1935,130323,38359,XRF2,1,2019-10-09,16:37:51,LEVAY_B,2019-11-05 16:39:06,~1mm accessory; with film; XRF 2
382,U1538,A,4,H,5,A,920.0,33.72,33.701,44596482,SHLF9961591,10,0.16,6,7,10,12,No-Filter,126197,6,2882,76283,131,1876,68193,-3673,21506,26198,13001,123,1933,131510,42154,XRF2,1,2019-10-09,16:38:26,LEVAY_B,2019-11-05 16:39:06,~1mm accessory; with film; XRF 2
382,U1538,A,4,H,5,A,1000.0,33.8,33.781,44596482,SHLF9961591,10,0.16,6,7,10,12,No-Filter,122105,23,2755,79917,226,1932,61707,-2819,21068,23353,12030,375,1966,125132,39975,XRF2,1,2019-10-09,16:39:01,LEVAY_B,2019-11-05 16:39:06,~1mm accessory; with film; XRF 2
382,U1538,A,4,H,5,A,1080.0,33.88,33.861,44596482,SHLF9961591,10,0.16,6,7,10,12,No-Filter,121666,-47,2905,84280,211,1943,57928,-2955,21441,22592,12119,217,2002,125731,39823,XRF2,1,2019-10-09,16:39:35,LEVAY_B,2019-11-05 16:39:06,~1mm accessory; with film; XRF 2
382,U1538,A,4,H,5,A,1160.0,33.96,33.941,44596482,SHLF9961591,10,0.16,6,7,10,12,No-Filter,124532,46,3540,96147,283,1754,51989,-3148,25422,24356,13741,668,2004,132507,37999,XRF2,1,2019-10-09,16:40:10,LEVAY_B,2019-11-05 16:39:06,~1mm accessory; with film; XRF 2
382,U1538,A,4,H,5,A,1240.0,34.04,34.021,44596482,SHLF9961591,10,0.16,6,7,10,12,No-Filter,121791,-11,2994,91014,308,1892,53991,-3131,22235,23471,12675,327,1859,125506,38773,XRF2,1,2019-10-09,16:40:44,LEVAY_B,2019-11-05 16:39:06,~1mm accessory; with film; XRF 2
382,U1538,A,4,H,5,A,1320.0,34.12,34.101,44596482,SHLF9961591,10,0.16,6,7,10,12,No-Filter,118510,-18,2724,79490,246,1601,59619,-2777,21839,21170,12142,166,1898,119146,39208,XRF2,1,2019-10-09,16:41:19,LEVAY_B,2019-11-05 16:39:06,~1mm accessory; with film; XRF 2
382,U1538,A,4,H,5,A,1400.0,34.2,34.181,44596482,SHLF9961591,10,0.16,6,7,10,12,No-Filter,119857,-33,2748,81540,205,1936,63993,-2768,22386,19923,11624,-152,1462,116666,39818,XRF2,1,2019-10-09,16:41:54,LEVAY_B,2019-11-05 16:39:06,~1mm accessory; with film; XRF 2
382,U1538,A,4,H,5,A,1480.0,34.28,34.261,44596482,SHLF9961591,10,0.16,6,7,10,12,No-Filter,127178,1,4024,105011,318,1623,57326,-3178,26935,20607,12631,80,2032,121639,40608,XRF2,1,2019-10-09,16:42:28,LEVAY_B,2019-11-05 16:39:06,~1mm accessory; with film; XRF 2
382,U1538,A,5,H,5,A,80.0,42.38,42.38,44596492,SHLF9962061,10,0.16,6,7,10,12,No-Filter,128247,50,4283,109823,269,2322,50176,-2969,29159,19227,13427,176,1925,135589,37785,XRF2,1,2019-10-09,17:00:33,LEVAY_B,2019-11-05 16:39:09,~1mm accessory; with film; XRF 2
382,U1538,A,5,H,5,A,160.0,42.46,42.46,44596492,SHLF9962061,10,0.16,6,7,10,12,No-Filter,118925,-21,3096,101002,128,2125,53485,-2719,22268,14678,9629,113,1613,109896,37160,XRF2,1,2019-10-09,17:01:08,LEVAY_B,2019-11-05 16:39:09,~1mm accessory; with film; XRF 2
382,U1538,A,5,H,5,A,240.0,42.54,42.54,44596492,SHLF9962061,10,0.16,6,7,10,12,No-Filter,123403,-10,3683,108214,224,1643,51097,-2905,26498,14014,10978,211,2460,121191,37907,XRF2,1,2019-10-09,17:01:43,LEVAY_B,2019-11-05 16:39:09,~1mm accessory; with film; XRF 2
382,U1538,A,5,H,5,A,320.0,42.62,42.62,44596492,SHLF9962061,10,0.16,6,7,10,12,No-Filter,116838,3,2929,102327,121,2222,49825,-2159,20625,12822,8930,365,1795,107887,36515,XRF2,1,2019-10-09,17:02:17,LEVAY_B,2019-11-05 16:39:09,~1mm accessory; with film; XRF 2
382,U1538,A,5,H,5,A,400.0,42.7,42.7,44596492,SHLF9962061,10,0.16,6,7,10,12,No-Filter,121674,30,3321,101890,134,1840,51216,-2519,25831,14669,11055,367,2146,122934,38009,XRF2,1,2019-10-09,17:02:51,LEVAY_B,2019-11-05 16:39:09,~1mm accessory; with film; XRF 2
382,U1538,A,5,H,5,A,480.0,42.78,42.78,44596492,SHLF9962061,10,0.16,6,7,10,12,No-Filter,127620,-12,3518,102646,181,2652,49829,-2719,28876,16617,12034,338,1953,142454,38686,XRF2,1,2019-10-09,17:03:26,LEVAY_B,2019-11-05 16:39:09,~1mm accessory; with film; XRF 2
382,U1538,A,5,H,5,A,560.0,42.86,42.86,44596492,SHLF9962061,10,0.16,6,7,10,12,No-Filter,125087,4,4291,109588,138,1702,46005,-2160,32229,15376,12984,430,1912,130134,37240,XRF2,1,2019-10-09,17:04:01,LEVAY_B,2019-11-05 16:39:09,~1mm accessory; with film; XRF 2
382,U1538,A,5,H,5,A,640.0,42.94,42.94,44596492,SHLF9962061,10,0.16,6,7,10,12,No-Filter,124702,11,4514,108839,225,1295,48200,-2499,34005,15432,13437,75,1456,126339,38080,XRF2,1,2019-10-09,17:04:35,LEVAY_B,2019-11-05 16:39:09,~1mm accessory; with film; XRF 2
382,U1538,A,5,H,5,A,720.0,43.02,43.02,44596492,SHLF9962061,10,0.16,6,7,10,12,No-Filter,128636,-8,3467,97877,214,1009,56068,-2559,30439,14662,11849,387,1576,145280,39792,XRF2,1,2019-10-09,17:05:10,LEVAY_B,2019-11-05 16:39:09,~1mm accessory; with film; XRF 2
382,U1538,A,5,H,5,A,800.0,43.1,43.1,44596492,SHLF9962061,10,0.16,6,7,10,12,No-Filter,121876,30,3588,96439,129,1526,56880,-2503,29645,12464,11380,42,1468,115984,38866,XRF2,1,2019-10-09,17:05:45,LEVAY_B,2019-11-05 16:39:09,~1mm accessory; with film; XRF 2
382,U1538,A,9,H,5,A,40.0,80.36,79.898,44596502,SHLF9964051,10,0.16,6,7,10,12,No-Filter,137874,61,5892,119423,341,4075,39260,-3267,38444,27225,16168,763,2029,176730,36503,XRF2,1,2019-10-09,17:17:30,LEVAY_B,2019-11-05 16:39:12,~1mm accessory; with film; XRF 2
382,U1538,A,9,H,5,A,120.0,80.44,79.978,44596502,SHLF9964051,10,0.16,6,8,10,12,No-Filter,148336,158,7103,130586,348,3578,39889,-3237,44076,32924,18982,628,2668,191846,38604,XRF2,1,2019-10-09,17:18:04,LEVAY_B,2019-11-05 16:39:12,~1mm accessory; with film; XRF 2
382,U1538,A,9,H,5,A,200.0,80.52,80.058,44596502,SHLF9964051,10,0.16,6,8,10,12,No-Filter,149721,104,7887,129620,477,3985,37714,-3354,46226,35626,19917,591,2376,197221,38339,XRF2,1,2019-10-09,17:18:39,LEVAY_B,2019-11-05 16:39:12,~1mm accessory; with film; XRF 2
382,U1538,A,9,H,5,A,280.0,80.6,80.138,44596502,SHLF9964051,10,0.16,6,8,10,12,No-Filter,147460,103,7193,123539,310,5964,39160,-3274,42245,33926,18686,746,2639,198088,37252,XRF2,1,2019-10-09,17:19:14,LEVAY_B,2019-11-05 16:39:12,~1mm accessory; with film; XRF 2
382,U1538,A,9,H,5,A,360.0,80.68,80.218,44596502,SHLF9964051,10,0.16,6,8,10,12,No-Filter,155158,150,6938,119600,404,4121,42261,-3328,46277,33977,18920,784,2658,227149,38501,XRF2,1,2019-10-09,17:19:48,LEVAY_B,2019-11-05 16:39:12,~1mm accessory; with film; XRF 2
382,U1538,A,9,H,5,A,440.0,80.76,80.298,44596502,SHLF9964051,10,0.16,6,8,10,12,No-Filter,147701,113,8050,128296,386,2960,34612,-3074,47478,38020,20422,847,2708,196767,36960,XRF2,1,2019-10-09,17:20:24,LEVAY_B,2019-11-05 16:39:12,~1mm accessory; with film; XRF 2
382,U1538,A,9,H,5,A,520.0,80.84,80.378,44596502,SHLF9964051,10,0.16,6,8,10,12,No-Filter,145557,142,7980,124378,436,2801,33157,-2321,47209,39174,20294,316,2522,196005,35096,XRF2,1,2019-10-09,17:20:59,LEVAY_B,2019-11-05 16:39:12,~1mm accessory; with film; XRF 2
382,U1538,A,9,H,5,A,600.0,80.92,80.458,44596502,SHLF9964051,10,0.16,6,8,10,12,No-Filter,150474,143,8015,128734,379,2494,35043,-2755,49406,38946,20746,608,2859,203176,36148,XRF2,1,2019-10-09,17:21:34,LEVAY_B,2019-11-05 16:39:12,~1mm accessory; with film; XRF 2
382,U1538,A,9,H,5,A,680.0,81.0,80.538,44596502,SHLF9964051,10,0.16,6,7,10,12,No-Filter,124218,16,6556,110040,311,2431,23038,133,39487,30021,16893,917,2222,165732,31051,XRF2,1,2019-10-09,17:22:10,LEVAY_B,2019-11-05 16:39:12,~1mm accessory; with film; XRF 2
382,U1538,A,9,H,5,A,760.0,81.08,80.618,44596502,SHLF9964051,10,0.16,6,7,10,12,No-Filter,111161,29,4084,80439,264,1690,22506,2358,33328,25875,14557,435,2277,153181,30510,XRF2,1,2019-10-09,17:22:44,LEVAY_B,2019-11-05 16:39:12,~1mm accessory; with film; XRF 2
382,U1538,A,9,H,5,A,840.0,81.16,80.698,44596502,SHLF9964051,10,0.16,6,8,10,12,No-Filter,147679,97,7628,127988,417,3003,37893,-3259,45018,35737,19140,825,2433,196700,36736,XRF2,1,2019-10-09,17:23:19,LEVAY_B,2019-11-05 16:39:12,~1mm accessory; with film; XRF 2
382,U1538,A,9,H,5,A,920.0,81.24,80.778,44596502,SHLF9964051,10,0.16,6,8,10,12,No-Filter,145894,82,7491,125939,297,3479,34438,-2681,45654,35984,19760,567,2434,194665,35535,XRF2,1,2019-10-09,17:23:54,LEVAY_B,2019-11-05 16:39:12,~1mm accessory; with film; XRF 2
382,U1538,A,9,H,5,A,1000.0,81.32,80.858,44596502,SHLF9964051,10,0.16,6,8,10,12,No-Filter,143588,107,6445,120632,471,5442,39320,-3231,38890,32859,16798,402,2404,191153,36403,XRF2,1,2019-10-09,17:24:29,LEVAY_B,2019-11-05 16:39:12,~1mm accessory; with film; XRF 2
382,U1538,A,9,H,5,A,1080.0,81.4,80.938,44596502,SHLF9964051,10,0.16,6,8,10,12,No-Filter,145140,76,7018,118690,323,3725,39337,-2990,42146,36871,18077,347,2694,194434,36331,XRF2,1,2019-10-09,17:25:04,LEVAY_B,2019-11-05 16:39:12,~1mm accessory; with film; XRF 2
382,U1538,A,9,H,5,A,1160.0,81.48,81.018,44596502,SHLF9964051,10,0.16,6,8,10,12,No-Filter,147867,69,7860,109461,454,2727,35237,-2507,48756,45892,20897,1080,3140,212311,35274,XRF2,1,2019-10-09,17:25:39,LEVAY_B,2019-11-05 16:39:12,~1mm accessory; with film; XRF 2
382,U1538,A,9,H,5,A,1240.0,81.56,81.098,44596502,SHLF9964051,10,0.16,6,8,10,12,No-Filter,149980,133,8757,118766,387,2529,27294,-1456,50836,48833,22272,1110,3270,220974,33836,XRF2,1,2019-10-09,17:26:14,LEVAY_B,2019-11-05 16:39:12,~1mm accessory; with film; XRF 2
382,U1538,A,9,H,5,A,1320.0,81.64,81.178,44596502,SHLF9964051,10,0.16,6,8,10,12,No-Filter,156236,197,9000,122108,464,3116,35609,-3046,51764,50038,22903,567,3221,222334,37012,XRF2,1,2019-10-09,17:26:50,LEVAY_B,2019-11-05 16:39:12,~1mm accessory; with film; XRF 2
382,U1538,A,9,H,5,A,1400.0,81.72,81.258,44596502,SHLF9964051,10,0.16,6,8,10,12,No-Filter,152602,119,8607,122308,434,3910,31819,-2152,50029,47869,21820,984,2977,219423,35465,XRF2,1,2019-10-09,17:27:25,LEVAY_B,2019-11-05 16:39:12,~1mm accessory; with film; XRF 2
382,U1538,A,9,H,5,A,1480.0,81.8,81.338,44596502,SHLF9964051,10,0.16,6,8,10,12,No-Filter,142905,73,7454,112062,400,2960,29059,-1392,45487,45199,20380,937,3278,204085,34533,XRF2,1,2019-10-09,17:28:00,LEVAY_B,2019-11-05 16:39:12,~1mm accessory; with film; XRF 2
382,U1538,A,12,H,3,A,80.0,105.88,105.68,44596442,SHLF9965771,10,0.16,6,8,10,12,No-Filter,147315,5,6168,115836,345,3626,45733,-3036,42397,35656,18762,774,2216,194600,38553,XRF2,1,2019-10-09,17:48:07,LEVAY_B,2019-11-05 16:38:51,~1mm accessory; with film; XRF 2
382,U1538,A,12,H,3,A,160.0,105.96,105.76,44596442,SHLF9965771,10,0.16,6,8,10,12,No-Filter,144922,64,6373,116638,357,3360,42769,-3438,41433,34207,18158,507,2245,189545,37766,XRF2,1,2019-10-09,17:48:42,LEVAY_B,2019-11-05 16:38:51,~1mm accessory; with film; XRF 2
382,U1538,A,12,H,3,A,240.0,106.04,105.84,44596442,SHLF9965771,10,0.16,6,8,10,12,No-Filter,143849,31,5967,107718,274,4147,45554,-3139,40486,34656,17775,520,2578,188497,38259,XRF2,1,2019-10-09,17:49:17,LEVAY_B,2019-11-05 16:38:51,~1mm accessory; with film; XRF 2
382,U1538,A,12,H,3,A,320.0,106.12,105.92,44596442,SHLF9965771,10,0.16,6,7,10,12,No-Filter,141409,66,5749,104418,181,4427,43588,-2751,40638,34909,17696,661,2431,187505,37219,XRF2,1,2019-10-09,17:49:52,LEVAY_B,2019-11-05 16:38:51,~1mm accessory; with film; XRF 2
382,U1538,A,12,H,3,A,400.0,106.2,106.0,44596442,SHLF9965771,10,0.16,6,7,10,12,No-Filter,140418,77,5728,103315,217,4383,42344,-2208,38785,33411,17371,657,2377,187602,37247,XRF2,1,2019-10-09,17:50:27,LEVAY_B,2019-11-05 16:38:51,~1mm accessory; with film; XRF 2
382,U1538,A,12,H,3,A,480.0,106.28,106.08,44596442,SHLF9965771,10,0.16,6,7,10,12,No-Filter,140872,0,5810,99754,290,3934,43500,-2188,40921,35606,18606,692,2308,188851,36658,XRF2,1,2019-10-09,17:51:01,LEVAY_B,2019-11-05 16:38:51,~1mm accessory; with film; XRF 2
382,U1538,A,12,H,3,A,560.0,106.36,106.16,44596442,SHLF9965771,10,0.16,6,7,10,12,No-Filter,137891,54,6593,106018,358,3321,36844,-1786,41910,34660,18391,790,2690,185253,34927,XRF2,1,2019-10-09,17:51:36,LEVAY_B,2019-11-05 16:38:51,~1mm accessory; with film; XRF 2
382,U1538,A,12,H,3,A,640.0,106.44,106.24,44596442,SHLF9965771,10,0.16,6,7,10,12,No-Filter,132766,1,5184,97173,217,7190,35746,-801,35287,29559,15342,664,2232,181927,34066,XRF2,1,2019-10-09,17:52:11,LEVAY_B,2019-11-05 16:38:51,~1mm accessory; with film; XRF 2
382,U1538,A,12,H,3,A,720.0,106.52,106.32,44596442,SHLF9965771,10,0.16,6,8,10,12,No-Filter,145922,46,6338,105395,323,8751,38273,-2081,41510,35946,18828,596,2545,212118,35344,XRF2,1,2019-10-09,17:52:46,LEVAY_B,2019-11-05 16:38:51,~1mm accessory; with film; XRF 2
382,U1538,A,12,H,3,A,800.0,106.6,106.4,44596442,SHLF9965771,10,0.16,6,7,10,12,No-Filter,139428,84,6154,96287,284,4857,36851,-1226,42093,38040,18963,814,2695,201935,34480,XRF2,1,2019-10-09,17:53:20,LEVAY_B,2019-11-05 16:38:51,~1mm accessory; with film; XRF 2
382,U1538,A,12,H,3,A,880.0,106.68,106.48,44596442,SHLF9965771,10,0.16,6,8,10,12,No-Filter,144088,138,7912,109070,387,2622,30853,-1744,47010,42121,20699,772,2929,209901,34336,XRF2,1,2019-10-09,17:53:56,LEVAY_B,2019-11-05 16:38:51,~1mm accessory; with film; XRF 2
382,U1538,A,12,H,3,A,960.0,106.76,106.56,44596442,SHLF9965771,10,0.16,6,8,10,12,No-Filter,151872,76,8005,112614,467,2756,38504,-2890,48071,45414,21983,763,2876,215596,36916,XRF2,1,2019-10-09,17:54:30,LEVAY_B,2019-11-05 16:38:51,~1mm accessory; with film; XRF 2
382,U1538,A,12,H,3,A,1040.0,106.84,106.64,44596442,SHLF9965771,10,0.16,6,8,10,12,No-Filter,152063,116,9064,120117,432,1910,34168,-2690,50619,47217,22259,869,2892,215397,35866,XRF2,1,2019-10-09,17:55:06,LEVAY_B,2019-11-05 16:38:51,~1mm accessory; with film; XRF 2
382,U1538,A,12,H,3,A,1120.0,106.92,106.72,44596442,SHLF9965771,10,0.16,6,8,10,12,No-Filter,162935,194,10200,120521,596,969,32593,-3386,54053,60987,23942,510,3820,244545,37315,XRF2,1,2019-10-09,17:55:42,LEVAY_B,2019-11-05 16:38:51,~1mm accessory; with film; XRF 2
382,U1538,A,12,H,3,A,1200.0,107.0,106.8,44596442,SHLF9965771,10,0.16,6,8,10,12,No-Filter,165541,170,9865,118673,594,1026,36629,-3607,55433,62364,25065,873,3723,246641,38615,XRF2,1,2019-10-09,17:56:17,LEVAY_B,2019-11-05 16:38:51,~1mm accessory; with film; XRF 2
382,U1538,A,12,H,3,A,1280.0,107.08,106.88,44596442,SHLF9965771,10,0.16,6,8,10,12,No-Filter,160790,159,9293,113729,458,1112,32033,-2519,54774,58768,23841,942,3641,247056,36691,XRF2,1,2019-10-09,17:56:53,LEVAY_B,2019-11-05 16:38:51,~1mm accessory; with film; XRF 2
382,U1538,A,12,H,3,A,1360.0,107.16,106.96,44596442,SHLF9965771,10,0.16,6,8,10,12,No-Filter,154925,86,8819,108902,412,574,32103,-2316,52287,56353,22613,956,3712,235901,35255,XRF2,1,2019-10-09,17:57:29,LEVAY_B,2019-11-05 16:38:51,~1mm accessory; with film; XRF 2
382,U1538,A,12,H,3,A,1440.0,107.24,107.04,44596442,SHLF9965771,10,0.16,6,8,10,12,No-Filter,154841,163,9244,115436,485,588,29187,-1709,53508,56288,23156,828,3259,232659,34894,XRF2,1,2019-10-09,17:58:04,LEVAY_B,2019-11-05 16:38:51,~1mm accessory; with film; XRF 2
382,U1538,A,12,H,3,A,1520.0,107.32,107.12,44596442,SHLF9965771,10,0.16,6,7,10,12,No-Filter,99375,27,4589,64341,157,866,14419,2809,30244,32756,13850,626,2216,140039,28478,XRF2,1,2019-10-09,17:58:39,LEVAY_B,2019-11-05 16:38:51,~1mm accessory; with film; XRF 2
382,U1538,A,13,H,7,A,80.0,118.91,118.849,44596452,SHLF9966501,10,0.16,6,7,10,12,No-Filter,123727,-16,2926,126937,232,2132,40824,-2027,14667,75797,8571,585,2053,86614,35533,XRF2,1,2019-10-09,18:18:36,LEVAY_B,2019-11-05 16:38:55,~1mm accessory; with film; XRF 2
382,U1538,A,13,H,7,A,160.0,118.99,118.929,44596452,SHLF9966501,10,0.16,6,7,10,12,No-Filter,122987,-3,2770,126511,300,1621,41372,-2133,13718,76254,7307,684,2003,81986,36371,XRF2,1,2019-10-09,18:19:11,LEVAY_B,2019-11-05 16:38:55,~1mm accessory; with film; XRF 2
382,U1538,A,13,H,7,A,240.0,119.07,119.009,44596452,SHLF9966501,10,0.16,6,7,10,12,No-Filter,127877,5,2749,124592,253,1456,39766,-1668,14754,105856,7815,655,2538,83521,35357,XRF2,1,2019-10-09,18:19:46,LEVAY_B,2019-11-05 16:38:55,~1mm accessory; with film; XRF 2
382,U1538,A,13,H,7,A,320.0,119.15,119.089,44596452,SHLF9966501,10,0.16,6,7,10,12,No-Filter,123047,53,2932,129843,370,1808,40771,-2098,14959,70547,7911,476,2058,84515,36250,XRF2,1,2019-10-09,18:20:21,LEVAY_B,2019-11-05 16:38:55,~1mm accessory; with film; XRF 2
382,U1538,A,13,H,7,A,400.0,119.23,119.169,44596452,SHLF9966501,10,0.16,6,7,10,12,No-Filter,106970,-2,2043,112372,129,1462,40968,-1318,11628,30057,6512,743,1677,71711,33920,XRF2,1,2019-10-09,18:20:56,LEVAY_B,2019-11-05 16:38:55,~1mm accessory; with film; XRF 2
382,U1538,A,13,H,7,A,480.0,119.31,119.249,44596452,SHLF9966501,10,0.16,6,7,10,12,No-Filter,112508,42,2415,114656,164,1684,42222,-1680,12950,42482,6962,347,1495,80124,34628,XRF2,1,2019-10-09,18:21:30,LEVAY_B,2019-11-05 16:38:55,~1mm accessory; with film; XRF 2
382,U1538,A,13,H,7,A,560.0,119.39,119.329,44596452,SHLF9966501,10,0.16,6,7,10,12,No-Filter,112429,16,2564,117243,182,1530,41193,-2389,13260,30298,7312,351,1715,81435,34554,XRF2,1,2019-10-09,18:22:04,LEVAY_B,2019-11-05 16:38:55,~1mm accessory; with film; XRF 2
382,U1538,A,13,H,7,A,640.0,119.47,119.409,44596452,SHLF9966501,10,0.16,6,7,10,12,No-Filter,112649,-50,2229,116775,244,1714,43500,-1856,11616,36913,6125,307,1458,74251,34930,XRF2,1,2019-10-09,18:22:38,LEVAY_B,2019-11-05 16:38:55,~1mm accessory; with film; XRF 2
382,U1538,A,13,H,7,A,720.0,119.55,119.489,44596452,SHLF9966501,10,0.16,6,7,10,12,No-Filter,117175,-17,2485,127220,122,1631,47488,-2717,12666,39607,6260,471,1633,76370,36955,XRF2,1,2019-10-09,18:23:13,LEVAY_B,2019-11-05 16:38:55,~1mm accessory; with film; XRF 2
382,U1538,A,13,H,7,A,800.0,119.63,119.569,44596452,SHLF9966501,10,0.16,6,7,10,12,No-Filter,112777,-2,2108,119754,180,1536,46954,-2377,12218,34433,6479,196,1390,72865,36175,XRF2,1,2019-10-09,18:23:47,LEVAY_B,2019-11-05 16:38:55,~1mm accessory; with film; XRF 2
382,U1538,A,13,H,7,A,880.0,119.71,119.649,44596452,SHLF9966501,10,0.16,6,7,10,12,No-Filter,117422,-21,2483,122340,345,3713,44562,-2212,13591,30944,6625,451,1689,96104,35858,XRF2,1,2019-10-09,18:24:22,LEVAY_B,2019-11-05 16:38:55,~1mm accessory; with film; XRF 2
382,U1538,A,13,H,7,A,960.0,119.79,119.729,44596452,SHLF9966501,10,0.16,6,7,10,12,No-Filter,105575,-24,2056,108712,117,1781,42788,-1633,11079,24122,5465,396,1093,70661,34264,XRF2,1,2019-10-09,18:24:56,LEVAY_B,2019-11-05 16:38:55,~1mm accessory; with film; XRF 2
382,U1538,A,13,H,7,A,1040.0,119.87,119.809,44596452,SHLF9966501,10,0.16,6,7,10,12,No-Filter,111377,-65,2359,123665,217,1671,45636,-2212,12213,20754,5883,165,1633,71696,36354,XRF2,1,2019-10-09,18:25:30,LEVAY_B,2019-11-05 16:38:55,~1mm accessory; with film; XRF 2
382,U1538,A,13,H,7,A,1120.0,119.95,119.889,44596452,SHLF9966501,10,0.16,6,7,10,12,No-Filter,116565,12,2459,124763,287,2792,49599,-2747,13397,22785,6872,144,1122,85418,37562,XRF2,1,2019-10-09,18:26:04,LEVAY_B,2019-11-05 16:38:55,~1mm accessory; with film; XRF 2
382,U1538,A,13,H,7,A,1200.0,120.03,119.969,44596452,SHLF9966501,10,0.16,6,7,10,12,No-Filter,109513,-20,2446,121047,217,1879,45527,-2188,13240,14180,6310,298,1442,79320,35432,XRF2,1,2019-10-09,18:26:39,LEVAY_B,2019-11-05 16:38:55,~1mm accessory; with film; XRF 2
382,U1538,A,13,H,7,A,1280.0,120.11,120.049,44596452,SHLF9966501,10,0.16,6,7,10,12,No-Filter,112440,21,2540,123098,132,1726,41417,-2019,13928,24255,6663,419,1609,80895,35608,XRF2,1,2019-10-09,18:27:13,LEVAY_B,2019-11-05 16:38:55,~1mm accessory; with film; XRF 2
382,U1538,A,13,H,7,A,1360.0,120.19,120.129,44596452,SHLF9966501,10,0.16,6,7,10,12,No-Filter,102692,-1,2073,109727,146,1733,40902,-579,11684,19816,5869,413,1403,70833,33165,XRF2,1,2019-10-09,18:27:47,LEVAY_B,2019-11-05 16:38:55,~1mm accessory; with film; XRF 2
382,U1538,A,14,H,2,A,40.0,123.3,123.3,44596462,SHLF9967011,10,0.16,6,7,10,12,No-Filter,114102,-14,2807,110151,198,2427,48431,-1818,18541,16958,8552,392,1663,93868,37204,XRF2,1,2019-10-10,09:17:15,LEVAY_B,2019-11-05 16:38:58,~1mm accessory; with film; XRF 2
382,U1538,A,14,H,2,A,120.0,123.38,123.38,44596462,SHLF9967011,10,0.16,6,7,10,12,No-Filter,117023,-28,2797,111506,134,2296,51586,-2459,17700,15569,8569,177,1675,96171,37783,XRF2,1,2019-10-10,09:17:50,LEVAY_B,2019-11-05 16:38:58,~1mm accessory; with film; XRF 2
382,U1538,A,14,H,2,A,200.0,123.46,123.46,44596462,SHLF9967011,10,0.16,6,7,10,12,No-Filter,118476,-4,3062,110473,222,2672,52988,-2513,18621,14463,8888,251,1583,101196,37831,XRF2,1,2019-10-10,09:18:25,LEVAY_B,2019-11-05 16:38:58,~1mm accessory; with film; XRF 2
382,U1538,A,14,H,2,A,280.0,123.54,123.54,44596462,SHLF9967011,10,0.16,6,7,10,12,No-Filter,118537,-13,3157,111649,273,2558,49683,-2461,20094,15887,9367,355,1730,106153,37284,XRF2,1,2019-10-10,09:19:00,LEVAY_B,2019-11-05 16:38:58,~1mm accessory; with film; XRF 2
382,U1538,A,14,H,2,A,360.0,123.62,123.62,44596462,SHLF9967011,10,0.16,6,7,10,12,No-Filter,120416,-2,3292,122059,241,2818,51302,-2501,19915,15062,9015,380,1395,98985,38032,XRF2,1,2019-10-10,09:19:35,LEVAY_B,2019-11-05 16:38:58,~1mm accessory; with film; XRF 2
382,U1538,A,14,H,2,A,440.0,123.7,123.7,44596462,SHLF9967011,10,0.16,6,7,10,12,No-Filter,125763,77,3719,115686,232,2902,48916,-2978,24182,17068,11094,411,1809,127089,38126,XRF2,1,2019-10-10,09:20:09,LEVAY_B,2019-11-05 16:38:58,~1mm accessory; with film; XRF 2
382,U1538,A,14,H,2,A,520.0,123.78,123.78,44596462,SHLF9967011,10,0.16,6,7,10,12,No-Filter,123537,55,3716,108098,154,2573,49606,-2675,25137,15373,11167,246,1931,126528,37631,XRF2,1,2019-10-10,09:20:44,LEVAY_B,2019-11-05 16:38:58,~1mm accessory; with film; XRF 2
382,U1538,A,14,H,2,A,600.0,123.86,123.86,44596462,SHLF9967011,10,0.16,6,7,10,12,No-Filter,125537,41,4741,132090,244,2617,43591,-2609,28270,16536,12161,353,1378,118238,36646,XRF2,1,2019-10-10,09:21:19,LEVAY_B,2019-11-05 16:38:58,~1mm accessory; with film; XRF 2
382,U1538,A,14,H,2,A,680.0,123.94,123.94,44596462,SHLF9967011,10,0.16,6,7,10,12,No-Filter,127675,36,4026,128425,227,3012,43108,-2649,24905,17264,12069,345,1730,132443,37828,XRF2,1,2019-10-10,09:21:54,LEVAY_B,2019-11-05 16:38:58,~1mm accessory; with film; XRF 2
382,U1538,A,14,H,2,A,760.0,124.02,124.02,44596462,SHLF9967011,10,0.16,6,7,10,12,No-Filter,121206,-18,2872,106369,209,3352,52827,-2794,20742,14927,9832,-98,1498,113543,38537,XRF2,1,2019-10-10,09:22:29,LEVAY_B,2019-11-05 16:38:58,~1mm accessory; with film; XRF 2
382,U1538,A,14,H,2,A,840.0,124.1,124.1,44596462,SHLF9967011,10,0.16,6,7,10,12,No-Filter,123834,-41,3796,122976,182,3015,47146,-2924,23227,15635,10711,262,1717,115853,38038,XRF2,1,2019-10-10,09:23:04,LEVAY_B,2019-11-05 16:38:58,~1mm accessory; with film; XRF 2
382,U1538,A,14,H,2,A,920.0,124.18,124.18,44596462,SHLF9967011,10,0.16,6,7,10,12,No-Filter,121283,-18,3329,112902,223,3648,50927,-2689,20880,13808,9971,382,1828,114779,37499,XRF2,1,2019-10-10,09:23:39,LEVAY_B,2019-11-05 16:38:58,~1mm accessory; with film; XRF 2
382,U1538,A,14,H,2,A,1000.0,124.26,124.26,44596462,SHLF9967011,10,0.16,6,7,10,12,No-Filter,122944,6,3208,122952,200,3625,50820,-2857,20659,14195,9382,129,1211,109261,38022,XRF2,1,2019-10-10,09:24:14,LEVAY_B,2019-11-05 16:38:58,~1mm accessory; with film; XRF 2
382,U1538,A,14,H,2,A,1080.0,124.34,124.34,44596462,SHLF9967011,10,0.16,6,7,10,12,No-Filter,124626,28,3769,127538,272,3059,48241,-2927,23038,15959,10121,281,1490,114538,38120,XRF2,1,2019-10-10,09:24:49,LEVAY_B,2019-11-05 16:38:58,~1mm accessory; with film; XRF 2
382,U1538,A,14,H,2,A,1160.0,124.42,124.42,44596462,SHLF9967011,10,0.16,6,7,10,12,No-Filter,125257,-43,3844,123424,244,3027,49475,-2943,25139,15773,10123,371,1488,116819,38288,XRF2,1,2019-10-10,09:25:24,LEVAY_B,2019-11-05 16:38:58,~1mm accessory; with film; XRF 2
382,U1538,A,14,H,2,A,1240.0,124.5,124.5,44596462,SHLF9967011,10,0.16,6,7,10,12,No-Filter,143076,30,3224,106013,433,2802,48993,-2888,22042,138657,9009,350,9664,101867,37465,XRF2,1,2019-10-10,09:25:58,LEVAY_B,2019-11-05 16:38:58,~1mm accessory; with film; XRF 2
382,U1538,A,14,H,2,A,1320.0,124.58,124.58,44596462,SHLF9967011,10,0.16,6,7,10,12,No-Filter,138030,8,2598,82732,424,2024,42011,-2079,19082,193343,7891,674,13382,80214,34667,XRF2,1,2019-10-10,09:26:33,LEVAY_B,2019-11-05 16:38:58,~1mm accessory; with film; XRF 2
382,U1538,A,14,H,2,A,1400.0,124.66,124.66,44596462,SHLF9967011,10,0.16,6,7,10,12,No-Filter,120021,-16,3157,112448,184,3225,47449,-2230,20476,15506,9616,292,1898,119418,36665,XRF2,1,2019-10-10,09:27:08,LEVAY_B,2019-11-05 16:38:58,~1mm accessory; with film; XRF 2
382,U1538,A,14,H,2,A,1440.0,124.7,124.7,44596462,SHLF9967011,10,0.16,6,7,10,12,No-Filter,119351,-15,3215,114482,188,3240,47080,-2095,20286,14884,9188,272,1693,116317,36313,XRF2,1,2019-10-10,09:27:26,LEVAY_B,2019-11-05 16:38:58,~1mm accessory; with film; XRF 2