File: 382_U1536A_XRF.csv
Expedition,Site,Hole,Core,Type,Section,A/W,Offset (mm),Depth CSF-A (m),CSF-B (m),Test No.,TextID,Voltage (kV),Tube Current (mA),Live Time (s),Real Time (s),Down-Core Slit (mm),Cross-Core Slit (mm),Filter,Total Counts Per Second,Mg-Ka Area,Al-Ka Area,Si-Ka Area,P -Ka Area,S -Ka Area,Cl-Ka Area,Ar-Ka Area,K -Ka Area,Ca-Ka Area,Ti-Ka Area,Cr-Ka Area,Mn-Ka Area,Fe-Ka Area,Rh-La-Coh Area,Instrument,Scan Number,Date of Measure,Time of Measure,Uploaded By,Date Uploaded,Comment
382,U1536,A,4,H,1,A,20,23.52,23.52,44593672,SHLF9855221,10,0.16,6,7,10,12,No-Filter,124964,10,3563,74952,189,2255,58600,-3750,30048,24877,13802,227,1883,141364,37381,XRF2,1,10/7/2019,11:57:30,LEVAY_B,11/1/2019 22:31,~1mm accessory; with film; XRF 2
382,U1536,A,4,H,1,A,140,23.64,23.64,44593672,SHLF9855221,10,0.16,6,7,10,12,No-Filter,125299,-31,3414,73078,224,2305,56957,-1853,30198,25283,13629,334,2185,145313,39008,XRF2,1,10/7/2019,11:59:04,LEVAY_B,11/1/2019 22:31,~1mm accessory; with film; XRF 2
382,U1536,A,4,H,1,A,260,23.76,23.76,44593672,SHLF9855221,10,0.16,6,7,10,12,No-Filter,130680,29,3769,73407,203,2214,59206,-2337,32846,28501,14846,407,2187,159983,39476,XRF2,1,10/7/2019,12:00:39,LEVAY_B,11/1/2019 22:31,~1mm accessory; with film; XRF 2
382,U1536,A,4,H,1,A,380,23.88,23.88,44593672,SHLF9855221,10,0.16,6,7,10,12,No-Filter,135598,18,4096,81458,181,2510,61231,-3978,34809,28122,14995,677,2581,162401,41221,XRF2,1,10/7/2019,12:02:16,LEVAY_B,11/1/2019 22:31,~1mm accessory; with film; XRF 2
382,U1536,A,4,H,1,A,500,24,24,44593672,SHLF9855221,10,0.16,6,7,10,12,No-Filter,126764,-28,2794,66230,91,2784,68275,-3108,24372,24833,12776,52,1840,141829,40983,XRF2,1,10/7/2019,12:03:53,LEVAY_B,11/1/2019 22:31,~1mm accessory; with film; XRF 2
382,U1536,A,4,H,1,A,620,24.12,24.12,44593672,SHLF9855221,10,0.16,6,7,10,12,No-Filter,125311,-40,2900,69935,102,2283,58831,-2852,25831,25509,13323,428,2154,150202,39124,XRF2,1,10/7/2019,12:05:29,LEVAY_B,11/1/2019 22:31,~1mm accessory; with film; XRF 2
382,U1536,A,4,H,1,A,740,24.24,24.24,44593672,SHLF9855221,10,0.16,6,7,10,12,No-Filter,130051,30,2946,73573,231,2608,64467,-3070,25783,26645,13916,317,2417,150804,41332,XRF2,1,10/7/2019,12:07:06,LEVAY_B,11/1/2019 22:31,~1mm accessory; with film; XRF 2
382,U1536,A,4,H,1,A,860,24.36,24.36,44593672,SHLF9855221,10,0.16,6,7,10,12,No-Filter,127610,-36,2735,74628,187,2405,64794,-3271,24023,25081,12901,151,2112,142741,41271,XRF2,1,10/7/2019,12:08:42,LEVAY_B,11/1/2019 22:31,~1mm accessory; with film; XRF 2
382,U1536,A,4,H,1,A,980,24.48,24.48,44593672,SHLF9855221,10,0.16,6,7,10,12,No-Filter,128638,5,3050,82875,187,2623,62360,-3355,24436,25544,13063,327,2023,139354,40799,XRF2,1,10/7/2019,12:10:19,LEVAY_B,11/1/2019 22:31,~1mm accessory; with film; XRF 2
382,U1536,A,4,H,1,A,1100,24.6,24.6,44593672,SHLF9855221,10,0.16,6,7,10,12,No-Filter,130919,22,3251,96685,275,2581,59995,-3801,24534,26237,13487,210,2030,138245,41061,XRF2,1,10/7/2019,12:11:55,LEVAY_B,11/1/2019 22:31,~1mm accessory; with film; XRF 2
382,U1536,A,4,H,1,A,1220,24.72,24.72,44593672,SHLF9855221,10,0.16,6,7,10,12,No-Filter,129080,-17,3278,92407,225,2287,59672,-3877,24405,25155,13577,91,1906,134528,41270,XRF2,1,10/7/2019,12:13:30,LEVAY_B,11/1/2019 22:31,~1mm accessory; with film; XRF 2
382,U1536,A,4,H,1,A,1340,24.84,24.84,44593672,SHLF9855221,10,0.16,6,7,10,12,No-Filter,122261,11,1911,67115,145,2761,73123,-3322,18647,20924,10866,32,2213,116900,43053,XRF2,1,10/7/2019,12:15:06,LEVAY_B,11/1/2019 22:31,~1mm accessory; with film; XRF 2
382,U1536,A,4,H,1,A,1460,24.96,24.96,44593672,SHLF9855221,10,0.16,6,7,10,12,No-Filter,123853,-18,2030,68667,82,2774,69032,-2805,17743,24888,12426,-175,2052,125593,42042,XRF2,1,10/7/2019,12:16:42,LEVAY_B,11/1/2019 22:31,~1mm accessory; with film; XRF 2
382,U1536,A,4,H,2,A,100,25.1,25.014,44593682,SHLF9855251,10,0.16,6,7,10,12,No-Filter,122755,-38,1895,67010,91,2844,75160,-3776,18000,18081,9830,-28,1855,116589,43812,XRF2,1,10/7/2019,13:27:58,LEVAY_B,11/1/2019 22:31,~1mm accessory; with film; XRF 2
382,U1536,A,4,H,2,A,220,25.22,25.134,44593682,SHLF9855251,10,0.16,6,7,10,12,No-Filter,124161,-51,2418,83301,133,2705,67550,-3571,19642,19063,10304,-191,1708,116421,42521,XRF2,1,10/7/2019,13:29:34,LEVAY_B,11/1/2019 22:31,~1mm accessory; with film; XRF 2
382,U1536,A,4,H,2,A,340,25.34,25.254,44593682,SHLF9855251,10,0.16,6,7,10,12,No-Filter,128691,14,3041,100821,258,2911,61685,-3538,22584,20684,10972,177,1658,125100,41763,XRF2,1,10/7/2019,13:31:11,LEVAY_B,11/1/2019 22:31,~1mm accessory; with film; XRF 2
382,U1536,A,4,H,2,A,460,25.46,25.374,44593682,SHLF9855251,10,0.16,6,7,10,12,No-Filter,126995,8,2816,94854,115,2691,63091,-3885,21584,19692,10801,90,1732,121604,41933,XRF2,1,10/7/2019,13:32:47,LEVAY_B,11/1/2019 22:31,~1mm accessory; with film; XRF 2
382,U1536,A,4,H,2,A,580,25.58,25.494,44593682,SHLF9855251,10,0.16,6,7,10,12,No-Filter,124887,-16,2567,84301,254,3204,66854,-3733,21316,19120,10310,-147,1798,117470,42491,XRF2,1,10/7/2019,13:34:23,LEVAY_B,11/1/2019 22:31,~1mm accessory; with film; XRF 2
382,U1536,A,4,H,2,A,700,25.7,25.614,44593682,SHLF9855251,10,0.16,6,7,10,12,No-Filter,127995,-28,3111,99352,179,2638,59722,-3536,23423,20474,11806,350,1888,127663,41070,XRF2,1,10/7/2019,13:36:01,LEVAY_B,11/1/2019 22:31,~1mm accessory; with film; XRF 2
382,U1536,A,4,H,2,A,820,25.82,25.734,44593682,SHLF9855251,10,0.16,6,7,10,12,No-Filter,132804,4,3488,100762,233,2667,59059,-3508,25244,23056,12712,216,2088,145488,40702,XRF2,1,10/7/2019,13:37:37,LEVAY_B,11/1/2019 22:31,~1mm accessory; with film; XRF 2
382,U1536,A,4,H,2,A,940,25.94,25.854,44593682,SHLF9855251,10,0.16,6,7,10,12,No-Filter,131387,8,3261,94048,216,3181,62058,-3457,24719,22839,12531,303,1889,139506,41807,XRF2,1,10/7/2019,13:39:13,LEVAY_B,11/1/2019 22:31,~1mm accessory; with film; XRF 2
382,U1536,A,4,H,2,A,1060,26.06,25.974,44593682,SHLF9855251,10,0.16,6,7,10,12,No-Filter,130539,40,3180,90533,142,2917,62498,-3385,24601,22659,12447,186,1820,139655,41587,XRF2,1,10/7/2019,13:40:49,LEVAY_B,11/1/2019 22:31,~1mm accessory; with film; XRF 2
382,U1536,A,4,H,2,A,1180,26.18,26.094,44593682,SHLF9855251,10,0.16,6,7,10,12,No-Filter,131824,14,3326,97986,294,2973,61178,-3440,25117,21394,12496,413,1701,136989,42425,XRF2,1,10/7/2019,13:42:25,LEVAY_B,11/1/2019 22:31,~1mm accessory; with film; XRF 2
382,U1536,A,4,H,2,A,1300,26.3,26.214,44593682,SHLF9855251,10,0.16,6,7,10,12,No-Filter,129746,6,3185,94963,217,2839,63119,-3330,24291,20208,11965,192,1782,133444,41197,XRF2,1,10/7/2019,13:44:01,LEVAY_B,11/1/2019 22:31,~1mm accessory; with film; XRF 2
382,U1536,A,4,H,2,A,1420,26.42,26.334,44593682,SHLF9855251,10,0.16,6,7,10,12,No-Filter,125281,19,2867,88434,208,3250,64851,-3435,21771,18424,10510,-194,1702,121824,41514,XRF2,1,10/7/2019,13:45:38,LEVAY_B,11/1/2019 22:31,~1mm accessory; with film; XRF 2
382,U1536,A,4,H,4,A,60,28.06,27.801,44593692,SHLF9855311,10,0.16,6,7,10,12,No-Filter,122230,-11,2109,57725,157,2926,73494,-2946,20561,21687,10752,-21,1827,124472,42721,XRF2,1,10/7/2019,14:58:14,LEVAY_B,11/1/2019 22:31,~1mm accessory; with film; XRF 2
382,U1536,A,4,H,4,A,180,28.18,27.921,44593692,SHLF9855311,10,0.16,6,7,10,12,No-Filter,131607,-29,2858,79671,164,2848,67891,-3853,24819,25046,12966,101,2093,139632,43544,XRF2,1,10/7/2019,14:59:50,LEVAY_B,11/1/2019 22:31,~1mm accessory; with film; XRF 2
382,U1536,A,4,H,4,A,300,28.3,28.041,44593692,SHLF9855311,10,0.16,6,7,10,12,No-Filter,136955,14,4399,111561,311,2389,55331,-3558,28932,28674,14414,262,2476,147544,40950,XRF2,1,10/7/2019,15:01:26,LEVAY_B,11/1/2019 22:31,~1mm accessory; with film; XRF 2
382,U1536,A,4,H,4,A,420,28.42,28.161,44593692,SHLF9855311,10,0.16,6,7,10,12,No-Filter,132893,20,3609,95050,282,3020,60159,-3393,26756,26455,13592,597,2009,142906,41654,XRF2,1,10/7/2019,15:03:03,LEVAY_B,11/1/2019 22:31,~1mm accessory; with film; XRF 2
382,U1536,A,4,H,4,A,540,28.54,28.281,44593692,SHLF9855311,10,0.16,6,7,10,12,No-Filter,129371,0,3294,89194,265,2562,61649,-3419,25296,25459,13159,40,1758,134136,41114,XRF2,1,10/7/2019,15:04:40,LEVAY_B,11/1/2019 22:31,~1mm accessory; with film; XRF 2
382,U1536,A,4,H,4,A,660,28.66,28.401,44593692,SHLF9855311,10,0.16,6,7,10,12,No-Filter,130381,15,3693,97240,150,2802,58635,-3561,25725,25795,12747,507,2132,132529,40764,XRF2,1,10/7/2019,15:06:17,LEVAY_B,11/1/2019 22:31,~1mm accessory; with film; XRF 2
382,U1536,A,4,H,4,A,780,28.78,28.521,44593692,SHLF9855311,10,0.16,6,7,10,12,No-Filter,116240,-21,2752,79466,77,2429,54472,-2349,20709,21570,10814,80,1587,114808,39428,XRF2,1,10/7/2019,15:07:53,LEVAY_B,11/1/2019 22:31,~1mm accessory; with film; XRF 2
382,U1536,A,4,H,4,A,900,28.9,28.641,44593692,SHLF9855311,10,0.16,6,7,10,12,No-Filter,128206,3,3040,89837,273,3298,62294,-3547,23414,23709,12143,420,1903,129130,41729,XRF2,1,10/7/2019,15:09:29,LEVAY_B,11/1/2019 22:31,~1mm accessory; with film; XRF 2
382,U1536,A,4,H,4,A,1020,29.02,28.761,44593692,SHLF9855311,10,0.16,6,7,10,12,No-Filter,126909,-3,2823,85715,185,3147,66067,-3666,22576,22608,11753,70,1534,122346,41924,XRF2,1,10/7/2019,15:11:05,LEVAY_B,11/1/2019 22:31,~1mm accessory; with film; XRF 2
382,U1536,A,4,H,4,A,1140,29.14,28.881,44593692,SHLF9855311,10,0.16,6,7,10,12,No-Filter,127734,1,3083,85662,145,3228,65814,-3676,23123,22345,11286,123,1838,126076,41406,XRF2,1,10/7/2019,15:12:42,LEVAY_B,11/1/2019 22:31,~1mm accessory; with film; XRF 2
382,U1536,A,4,H,4,A,1260,29.26,29.001,44593692,SHLF9855311,10,0.16,6,7,10,12,No-Filter,125009,-29,2483,77065,229,3289,70052,-3482,21410,20506,10870,82,1700,117537,43174,XRF2,1,10/7/2019,15:14:18,LEVAY_B,11/1/2019 22:31,~1mm accessory; with film; XRF 2
382,U1536,A,4,H,4,A,1380,29.38,29.121,44593692,SHLF9855311,10,0.16,6,7,10,12,No-Filter,124684,-11,1892,62149,124,3623,78112,-3836,19689,19214,9825,-168,1670,117650,44611,XRF2,1,10/7/2019,15:15:54,LEVAY_B,11/1/2019 22:31,~1mm accessory; with film; XRF 2
382,U1536,A,4,H,5,A,60,29.57,29.224,44593702,SHLF9855341,10,0.16,6,7,10,12,No-Filter,122397,-57,2013,73116,200,3543,74322,-3405,19120,18576,8813,-153,1611,104662,43652,XRF2,1,10/7/2019,15:45:57,LEVAY_B,11/1/2019 22:31,~1mm accessory; with film; XRF 2
382,U1536,A,4,H,5,A,180,29.69,29.344,44593702,SHLF9855341,10,0.16,6,7,10,12,No-Filter,127568,23,2474,83791,196,3491,69247,-3803,21535,19816,10267,-10,1557,115351,43339,XRF2,1,10/7/2019,15:47:31,LEVAY_B,11/1/2019 22:31,~1mm accessory; with film; XRF 2
382,U1536,A,4,H,5,A,300,29.81,29.464,44593702,SHLF9855341,10,0.16,6,7,10,12,No-Filter,132062,-8,3214,93192,215,3229,67699,-3885,24468,22470,11681,124,1845,128493,43167,XRF2,1,10/7/2019,15:49:07,LEVAY_B,11/1/2019 22:31,~1mm accessory; with film; XRF 2
382,U1536,A,4,H,5,A,420,29.93,29.584,44593702,SHLF9855341,10,0.16,6,7,10,12,No-Filter,126654,-23,2403,80397,215,3013,67467,-3242,22175,20722,10827,-299,1648,119443,42706,XRF2,1,10/7/2019,15:50:44,LEVAY_B,11/1/2019 22:31,~1mm accessory; with film; XRF 2
382,U1536,A,4,H,5,A,540,30.05,29.704,44593702,SHLF9855341,10,0.16,6,7,10,12,No-Filter,129580,-23,2956,85630,198,3501,68672,-3776,23771,21619,10976,-54,1833,126841,43345,XRF2,1,10/7/2019,15:52:20,LEVAY_B,11/1/2019 22:31,~1mm accessory; with film; XRF 2
382,U1536,A,4,H,5,A,660,30.17,29.824,44593702,SHLF9855341,10,0.16,6,7,10,12,No-Filter,127737,-24,2685,83595,183,3175,67577,-3518,23905,21385,11547,-56,1539,125446,42745,XRF2,1,10/7/2019,15:53:57,LEVAY_B,11/1/2019 22:31,~1mm accessory; with film; XRF 2
382,U1536,A,4,H,5,A,780,30.29,29.944,44593702,SHLF9855341,10,0.16,6,7,10,12,No-Filter,126752,20,2504,82447,228,3335,69241,-3653,21665,19901,10332,-85,1662,121291,43116,XRF2,1,10/7/2019,15:55:34,LEVAY_B,11/1/2019 22:31,~1mm accessory; with film; XRF 2
382,U1536,A,4,H,5,A,900,30.41,30.064,44593702,SHLF9855341,10,0.16,6,7,10,12,No-Filter,122684,15,2433,76716,158,3310,70795,-3635,20152,17779,8835,-158,1373,110551,42372,XRF2,1,10/7/2019,15:57:11,LEVAY_B,11/1/2019 22:31,~1mm accessory; with film; XRF 2
382,U1536,A,4,H,5,A,1020,30.53,30.184,44593702,SHLF9855341,10,0.16,6,7,10,12,No-Filter,127169,11,2877,84216,157,3445,68847,-3810,22279,19490,10390,25,1847,118919,43681,XRF2,1,10/7/2019,15:58:47,LEVAY_B,11/1/2019 22:31,~1mm accessory; with film; XRF 2
382,U1536,A,4,H,5,A,1140,30.65,30.304,44593702,SHLF9855341,10,0.16,6,7,10,12,No-Filter,128182,3,2845,84772,217,3322,69974,-3858,23080,20624,11258,-226,1488,123506,43041,XRF2,1,10/7/2019,16:00:24,LEVAY_B,11/1/2019 22:31,~1mm accessory; with film; XRF 2
382,U1536,A,4,H,5,A,1260,30.77,30.424,44593702,SHLF9855341,10,0.16,6,7,10,12,No-Filter,127213,3,2867,85407,135,3137,67836,-3524,23426,19485,10703,58,1784,124195,42011,XRF2,1,10/7/2019,16:02:00,LEVAY_B,11/1/2019 22:31,~1mm accessory; with film; XRF 2
382,U1536,A,4,H,5,A,1380,30.89,30.544,44593702,SHLF9855341,10,0.16,6,7,10,12,No-Filter,129067,5,2790,81437,201,3332,68969,-3772,24414,20501,11662,38,1805,128633,43899,XRF2,1,10/7/2019,16:03:39,LEVAY_B,11/1/2019 22:31,~1mm accessory; with film; XRF 2
382,U1536,A,5,H,1,A,20,33.02,33.02,44593712,SHLF9855691,10,0.16,6,7,10,12,No-Filter,124629,9,2076,67250,100,3374,78891,-3833,18919,16608,9399,92,1377,114002,43067,XRF2,1,10/7/2019,16:34:23,LEVAY_B,11/1/2019 22:31,~1mm accessory; with film; XRF 2
382,U1536,A,5,H,1,A,140,33.14,33.14,44593712,SHLF9855691,10,0.16,6,7,10,12,No-Filter,113035,22,1322,50906,102,3552,79057,-3001,14760,13692,7549,-484,1460,91098,43968,XRF2,1,10/7/2019,16:35:58,LEVAY_B,11/1/2019 22:31,~1mm accessory; with film; XRF 2
382,U1536,A,5,H,1,A,260,33.26,33.26,44593712,SHLF9855691,10,0.16,6,7,10,12,No-Filter,120872,-17,1363,59335,120,4134,84815,-4194,15663,14835,7909,-703,1214,100318,46064,XRF2,1,10/7/2019,16:37:32,LEVAY_B,11/1/2019 22:31,~1mm accessory; with film; XRF 2
382,U1536,A,5,H,1,A,380,33.38,33.38,44593712,SHLF9855691,10,0.16,6,7,10,12,No-Filter,121092,-49,1439,65631,83,3612,82286,-4019,15589,14268,7439,-324,1561,92541,44827,XRF2,1,10/7/2019,16:39:08,LEVAY_B,11/1/2019 22:31,~1mm accessory; with film; XRF 2
382,U1536,A,5,H,1,A,500,33.5,33.5,44593712,SHLF9855691,10,0.16,6,7,10,12,No-Filter,123925,-27,1473,65478,7,3716,88413,-4880,15702,13804,7247,-520,1219,92219,47414,XRF2,1,10/7/2019,16:40:44,LEVAY_B,11/1/2019 22:31,~1mm accessory; with film; XRF 2
382,U1536,A,5,H,1,A,620,33.62,33.62,44593712,SHLF9855691,10,0.16,6,7,10,12,No-Filter,119245,-53,973,48506,74,4019,99170,-4730,11885,11193,5307,-635,1016,74265,48326,XRF2,1,10/7/2019,16:42:20,LEVAY_B,11/1/2019 22:31,~1mm accessory; with film; XRF 2
382,U1536,A,5,H,1,A,740,33.74,33.74,44593712,SHLF9855691,10,0.16,6,7,10,12,No-Filter,119275,-26,1786,82343,99,3361,74297,-3733,16305,13558,7027,-323,1613,89182,43787,XRF2,1,10/7/2019,16:43:55,LEVAY_B,11/1/2019 22:31,~1mm accessory; with film; XRF 2
382,U1536,A,5,H,1,A,860,33.86,33.86,44593712,SHLF9855691,10,0.16,6,7,10,12,No-Filter,118141,30,1806,78454,100,3425,73574,-3668,15770,13842,7325,-423,1178,90301,43869,XRF2,1,10/7/2019,16:45:30,LEVAY_B,11/1/2019 22:31,~1mm accessory; with film; XRF 2
382,U1536,A,5,H,1,A,980,33.98,33.98,44593712,SHLF9855691,10,0.16,6,7,10,12,No-Filter,116054,-45,1521,68352,110,3391,76661,-3353,15583,13615,7217,-273,1302,87424,44247,XRF2,1,10/7/2019,16:47:04,LEVAY_B,11/1/2019 22:31,~1mm accessory; with film; XRF 2
382,U1536,A,5,H,1,A,1100,34.1,34.1,44593712,SHLF9855691,10,0.16,6,7,10,12,No-Filter,126256,-42,2753,90677,172,2601,64906,-3437,23628,18850,10619,-113,1631,119444,41953,XRF2,1,10/7/2019,16:48:39,LEVAY_B,11/1/2019 22:31,~1mm accessory; with film; XRF 2
382,U1536,A,5,H,1,A,1220,34.22,34.22,44593712,SHLF9855691,10,0.16,6,7,10,12,No-Filter,138419,65,4875,103668,227,1918,54736,-3619,33868,27544,16065,524,2446,159057,41535,XRF2,1,10/7/2019,16:50:15,LEVAY_B,11/1/2019 22:31,~1mm accessory; with film; XRF 2
382,U1536,A,5,H,1,A,1340,34.34,34.34,44593712,SHLF9855691,10,0.16,6,7,10,12,No-Filter,135763,-26,3315,82385,258,2014,60529,-3252,29439,23298,13333,254,2122,174478,41639,XRF2,1,10/7/2019,16:51:52,LEVAY_B,11/1/2019 22:31,~1mm accessory; with film; XRF 2
382,U1536,A,5,H,1,A,1460,34.46,34.46,44593712,SHLF9855691,10,0.16,6,7,10,12,No-Filter,120894,-22,2209,63377,156,2596,72610,-2910,21045,19070,10356,-160,1988,116003,42794,XRF2,1,10/7/2019,16:53:30,LEVAY_B,11/1/2019 22:31,~1mm accessory; with film; XRF 2
382,U1536,A,5,H,7,A,100,42.09,41.675,44593722,SHLF9855871,10,0.16,6,7,10,12,No-Filter,113074,-12,1457,59594,78,2872,77586,-2862,13240,14074,6909,-347,1529,83631,43425,XRF2,1,10/7/2019,17:25:53,LEVAY_B,11/1/2019 22:32,~1mm accessory; with film; XRF 2
382,U1536,A,5,H,7,A,220,42.21,41.795,44593722,SHLF9855871,10,0.16,6,7,10,12,No-Filter,116574,-45,1763,83400,117,2974,71952,-3040,14538,15284,6688,-293,1789,81787,42664,XRF2,1,10/7/2019,17:27:28,LEVAY_B,11/1/2019 22:32,~1mm accessory; with film; XRF 2
382,U1536,A,5,H,7,A,340,42.33,41.915,44593722,SHLF9855871,10,0.16,6,7,10,12,No-Filter,111310,-6,1374,62434,47,2754,78640,-3029,11578,12289,5754,-622,1424,72153,43879,XRF2,1,10/7/2019,17:29:03,LEVAY_B,11/1/2019 22:32,~1mm accessory; with film; XRF 2
382,U1536,A,5,H,7,A,460,42.45,42.035,44593722,SHLF9855871,10,0.16,6,7,10,12,No-Filter,115764,-20,1673,70046,87,2924,77501,-3769,13653,14592,6693,-326,1542,81777,43324,XRF2,1,10/7/2019,17:30:38,LEVAY_B,11/1/2019 22:32,~1mm accessory; with film; XRF 2
382,U1536,A,6,H,2,A,100,44.1,44.014,44593732,SHLF9856251,10,0.16,6,7,10,12,No-Filter,120172,-26,2444,83821,155,3420,64387,-3088,18791,14963,8765,25,2456,102633,41575,XRF2,1,10/7/2019,17:45:26,LEVAY_B,11/1/2019 22:32,~1mm accessory; with film; XRF 2
382,U1536,A,6,H,2,A,220,44.22,44.134,44593732,SHLF9856251,10,0.16,6,7,10,12,No-Filter,125913,-3,2861,87632,167,2977,63356,-3041,23191,16972,10803,338,3125,125348,40943,XRF2,1,10/7/2019,17:47:02,LEVAY_B,11/1/2019 22:32,~1mm accessory; with film; XRF 2
382,U1536,A,6,H,2,A,340,44.34,44.254,44593732,SHLF9856251,10,0.16,6,7,10,12,No-Filter,122988,25,2920,86306,183,2736,61497,-2677,21654,17749,10376,-6,2792,119885,40627,XRF2,1,10/7/2019,17:48:38,LEVAY_B,11/1/2019 22:32,~1mm accessory; with film; XRF 2
382,U1536,A,6,H,2,A,460,44.46,44.374,44593732,SHLF9856251,10,0.16,6,7,10,12,No-Filter,120768,-33,2282,72199,136,2935,70076,-3274,19827,15118,9617,-398,2676,112716,41665,XRF2,1,10/7/2019,17:50:14,LEVAY_B,11/1/2019 22:32,~1mm accessory; with film; XRF 2
382,U1536,A,6,H,2,A,580,44.58,44.494,44593732,SHLF9856251,10,0.16,6,7,10,12,No-Filter,117828,-24,2462,80785,127,2541,65488,-2956,19261,13900,9114,-103,2272,101148,41545,XRF2,1,10/7/2019,17:51:50,LEVAY_B,11/1/2019 22:32,~1mm accessory; with film; XRF 2
382,U1536,A,6,H,2,A,700,44.7,44.614,44593732,SHLF9856251,10,0.16,6,7,10,12,No-Filter,123747,-4,2822,84561,137,2812,65169,-3378,22939,15562,10631,52,2576,115181,41822,XRF2,1,10/7/2019,17:53:26,LEVAY_B,11/1/2019 22:32,~1mm accessory; with film; XRF 2
382,U1536,A,6,H,2,A,820,44.82,44.734,44593732,SHLF9856251,10,0.16,6,7,10,12,No-Filter,114165,-16,2309,67431,87,2545,62609,-2204,20744,14141,9645,-318,1905,108269,39134,XRF2,1,10/7/2019,17:55:01,LEVAY_B,11/1/2019 22:32,~1mm accessory; with film; XRF 2
382,U1536,A,6,H,2,A,940,44.94,44.854,44593732,SHLF9856251,10,0.16,6,7,10,12,No-Filter,128284,-30,3216,86238,158,2992,62036,-2987,26552,17041,12211,177,2576,136384,40555,XRF2,1,10/7/2019,17:56:37,LEVAY_B,11/1/2019 22:32,~1mm accessory; with film; XRF 2
382,U1536,A,6,H,2,A,1100,45.1,45.014,44593732,SHLF9856251,10,0.16,6,7,10,12,No-Filter,120312,-7,2789,80124,120,2737,63122,-3056,23080,14315,10099,158,1992,106907,40275,XRF2,1,10/7/2019,17:58:15,LEVAY_B,11/1/2019 22:32,~1mm accessory; with film; XRF 2
382,U1536,A,6,H,2,A,1220,45.22,45.134,44593732,SHLF9856251,10,0.16,6,7,10,12,No-Filter,123372,37,2942,77699,103,2930,66221,-3457,24182,15301,10907,34,2101,117755,40862,XRF2,1,10/7/2019,17:59:52,LEVAY_B,11/1/2019 22:32,~1mm accessory; with film; XRF 2
382,U1536,A,6,H,2,A,1340,45.34,45.254,44593732,SHLF9856251,10,0.16,6,7,10,12,No-Filter,109131,-61,1510,54326,29,3209,80981,-2935,13592,9070,5314,-674,1233,65446,42669,XRF2,1,10/7/2019,18:01:28,LEVAY_B,11/1/2019 22:32,~1mm accessory; with film; XRF 2
382,U1536,A,6,H,2,A,1460,45.46,45.374,44593732,SHLF9856251,10,0.16,6,7,10,12,No-Filter,120246,-41,2254,69461,65,3378,75627,-3148,20113,11549,7265,-565,12077,89870,43011,XRF2,1,10/7/2019,18:03:03,LEVAY_B,11/1/2019 22:32,~1mm accessory; with film; XRF 2
382,U1536,A,6,H,6,A,100,50.1,49.669,44593742,SHLF9856371,10,0.16,6,8,10,12,No-Filter,158731,130,10114,130228,465,1026,36626,-3567,61351,39785,22153,819,3549,218740,39440,XRF2,1,10/7/2019,18:33:16,LEVAY_B,11/1/2019 22:32,~1mm accessory; with film; XRF 2
382,U1536,A,6,H,6,A,220,50.22,49.789,44593742,SHLF9856371,10,0.16,6,8,10,12,No-Filter,160621,143,11230,141942,494,1302,32274,-3570,63939,39241,23577,821,3145,221102,38094,XRF2,1,10/7/2019,18:34:55,LEVAY_B,11/1/2019 22:32,~1mm accessory; with film; XRF 2
382,U1536,A,6,H,6,A,340,50.34,49.909,44593742,SHLF9856371,10,0.16,6,8,10,12,No-Filter,158350,162,10499,131437,530,1431,34133,-3405,59871,40147,22959,638,3170,224202,37720,XRF2,1,10/7/2019,18:36:34,LEVAY_B,11/1/2019 22:32,~1mm accessory; with film; XRF 2
382,U1536,A,6,H,6,A,460,50.46,50.029,44593742,SHLF9856371,10,0.16,6,8,10,12,No-Filter,147807,62,9970,124675,390,778,30040,-2120,56552,37875,21495,975,3275,202179,36602,XRF2,1,10/7/2019,18:38:12,LEVAY_B,11/1/2019 22:32,~1mm accessory; with film; XRF 2
382,U1536,A,6,H,6,A,580,50.58,50.149,44593742,SHLF9856371,10,0.16,6,8,10,12,No-Filter,156038,117,10846,132901,479,1360,29889,-2678,59033,43840,22355,524,3179,218918,37127,XRF2,1,10/7/2019,18:39:50,LEVAY_B,11/1/2019 22:32,~1mm accessory; with film; XRF 2
382,U1536,A,6,H,6,A,700,50.7,50.269,44593742,SHLF9856371,10,0.16,6,8,10,12,No-Filter,153538,82,10496,136080,568,743,28606,-2738,60915,39966,22214,800,3360,209465,37821,XRF2,1,10/7/2019,18:41:28,LEVAY_B,11/1/2019 22:32,~1mm accessory; with film; XRF 2
382,U1536,A,6,H,6,A,820,50.82,50.389,44593742,SHLF9856371,10,0.16,6,8,10,12,No-Filter,151413,160,10204,137603,376,743,33198,-2705,58795,34172,21114,548,2806,197281,37641,XRF2,1,10/7/2019,18:43:07,LEVAY_B,11/1/2019 22:32,~1mm accessory; with film; XRF 2
382,U1536,A,6,H,6,A,940,50.94,50.509,44593742,SHLF9856371,10,0.16,6,8,10,12,No-Filter,152034,82,6753,113622,286,960,46075,-3618,49096,30384,18515,621,2906,216348,39890,XRF2,1,10/7/2019,18:44:45,LEVAY_B,11/1/2019 22:32,~1mm accessory; with film; XRF 2
382,U1536,A,6,H,6,A,1060,51.06,50.629,44593742,SHLF9856371,10,0.16,6,8,10,12,No-Filter,144238,92,7695,128646,398,1174,38849,-2894,47259,30753,18642,341,2761,180176,38059,XRF2,1,10/7/2019,18:46:24,LEVAY_B,11/1/2019 22:32,~1mm accessory; with film; XRF 2
382,U1536,A,6,H,6,A,1180,51.18,50.749,44593742,SHLF9856371,10,0.16,6,7,10,12,No-Filter,113845,-42,2114,109269,141,2071,58001,-2555,13041,12314,6620,248,1460,81155,39126,XRF2,1,10/7/2019,18:48:00,LEVAY_B,11/1/2019 22:32,~1mm accessory; with film; XRF 2
382,U1536,A,6,H,6,A,1300,51.3,50.869,44593742,SHLF9856371,10,0.16,6,7,10,12,No-Filter,112939,40,2228,112540,227,2251,54082,-1966,13480,13442,7381,37,1452,84897,38066,XRF2,1,10/7/2019,18:49:36,LEVAY_B,11/1/2019 22:32,~1mm accessory; with film; XRF 2
382,U1536,A,6,H,6,A,1420,51.42,50.989,44593742,SHLF9856371,10,0.16,6,7,10,12,No-Filter,119236,-15,2397,115463,252,2482,58610,-3056,14531,14600,7565,-80,1605,89779,40211,XRF2,1,10/7/2019,18:51:11,LEVAY_B,11/1/2019 22:32,~1mm accessory; with film; XRF 2
382,U1536,A,11,H,1,A,60,90.06,90.06,44593922,SHLF9858751,10,0.16,6,7,10,12,No-Filter,113002,-23,2779,51107,170,1897,48494,1341,29631,19229,12821,432,1522,150247,34933,XRF2,1,10/8/2019,9:27:16,LEVAY_B,11/1/2019 22:39,~1mm accessory; with film; XRF 2
382,U1536,A,11,H,1,A,180,90.18,90.18,44593922,SHLF9858751,10,0.16,6,7,10,12,No-Filter,114282,-29,3393,70781,172,1877,42022,609,32155,17642,12774,325,1667,139660,34743,XRF2,1,10/8/2019,9:28:51,LEVAY_B,11/1/2019 22:39,~1mm accessory; with film; XRF 2
382,U1536,A,11,H,1,A,300,90.3,90.3,44593922,SHLF9858751,10,0.16,6,7,10,12,No-Filter,115427,0,4350,74266,238,1334,30607,1721,35072,25751,15210,614,2123,159738,31619,XRF2,1,10/8/2019,9:30:27,LEVAY_B,11/1/2019 22:39,~1mm accessory; with film; XRF 2
382,U1536,A,11,H,1,A,420,90.42,90.42,44593922,SHLF9858751,10,0.16,6,8,10,12,No-Filter,143642,64,6191,87938,280,1472,44682,-2104,45397,32168,20666,978,2911,214014,37472,XRF2,1,10/8/2019,9:32:02,LEVAY_B,11/1/2019 22:39,~1mm accessory; with film; XRF 2
382,U1536,A,11,H,1,A,540,90.54,90.54,44593922,SHLF9858751,10,0.16,6,8,10,12,No-Filter,155270,103,9183,111838,507,834,32706,-2471,53242,43487,23525,815,3469,237734,37266,XRF2,1,10/8/2019,9:33:41,LEVAY_B,11/1/2019 22:39,~1mm accessory; with film; XRF 2
382,U1536,A,11,H,1,A,660,90.66,90.66,44593922,SHLF9858751,10,0.16,6,8,10,12,No-Filter,162237,175,11030,124642,640,1202,31711,-3090,57456,48859,24884,876,3365,243385,37762,XRF2,1,10/8/2019,9:35:20,LEVAY_B,11/1/2019 22:39,~1mm accessory; with film; XRF 2
382,U1536,A,11,H,1,A,780,90.78,90.78,44593922,SHLF9858751,10,0.16,6,8,10,12,No-Filter,162399,159,9716,117532,819,1196,33764,-3168,56463,47909,24456,854,3610,250189,38378,XRF2,1,10/8/2019,9:36:59,LEVAY_B,11/1/2019 22:39,~1mm accessory; with film; XRF 2
382,U1536,A,11,H,1,A,900,90.9,90.9,44593922,SHLF9858751,10,0.16,6,8,10,12,No-Filter,163821,76,8793,109145,683,850,37488,-3270,55885,42649,22504,936,3301,268619,37946,XRF2,1,10/8/2019,9:38:38,LEVAY_B,11/1/2019 22:39,~1mm accessory; with film; XRF 2
382,U1536,A,11,H,1,A,1020,91.02,91.02,44593922,SHLF9858751,10,0.16,6,8,10,12,No-Filter,163458,140,10658,121584,640,995,30904,-3094,61283,47163,25047,555,3200,254379,37141,XRF2,1,10/8/2019,9:40:16,LEVAY_B,11/1/2019 22:39,~1mm accessory; with film; XRF 2
382,U1536,A,11,H,1,A,1140,91.14,91.14,44593922,SHLF9858751,10,0.16,6,8,10,12,No-Filter,165047,121,9792,121988,663,385,32296,-2761,61775,40364,22858,1231,3305,267345,37801,XRF2,1,10/8/2019,9:41:55,LEVAY_B,11/1/2019 22:39,~1mm accessory; with film; XRF 2
382,U1536,A,11,H,1,A,1260,91.26,91.26,44593922,SHLF9858751,10,0.16,6,8,10,12,No-Filter,158640,117,9999,119776,987,771,32134,-2717,62352,41309,24272,868,3166,239671,36667,XRF2,1,10/8/2019,9:43:33,LEVAY_B,11/1/2019 22:39,~1mm accessory; with film; XRF 2
382,U1536,A,11,H,1,A,1380,91.38,91.38,44593922,SHLF9858751,10,0.16,6,8,10,12,No-Filter,163023,238,11440,125031,606,1288,28019,-2603,58700,54832,24697,1090,3992,251537,35912,XRF2,1,10/8/2019,9:45:12,LEVAY_B,11/1/2019 22:39,~1mm accessory; with film; XRF 2
382,U1536,A,11,H,2,A,20,91.52,91.457,44593932,SHLF9858781,10,0.16,6,7,10,12,No-Filter,131184,96,6632,83855,397,850,22899,1552,42667,42031,18784,727,3063,210442,31818,XRF2,1,10/8/2019,10:17:20,LEVAY_B,11/1/2019 22:39,~1mm accessory; with film; XRF 2
382,U1536,A,11,H,2,A,140,91.64,91.577,44593932,SHLF9858781,10,0.16,6,7,10,12,No-Filter,139809,53,7249,91298,331,364,27321,237,47774,46026,20763,483,3365,218377,35273,XRF2,1,10/8/2019,10:18:59,LEVAY_B,11/1/2019 22:39,~1mm accessory; with film; XRF 2
382,U1536,A,11,H,2,A,260,91.76,91.697,44593932,SHLF9858781,10,0.16,6,8,10,12,No-Filter,148593,203,9433,109736,402,310,24692,-846,52861,51256,21819,903,3496,228234,34910,XRF2,1,10/8/2019,10:20:39,LEVAY_B,11/1/2019 22:39,~1mm accessory; with film; XRF 2
382,U1536,A,11,H,2,A,380,91.88,91.817,44593932,SHLF9858781,10,0.16,6,8,10,12,No-Filter,153008,127,9716,113254,440,971,24469,-1225,51982,54539,22082,764,3843,238865,35314,XRF2,1,10/8/2019,10:22:18,LEVAY_B,11/1/2019 22:39,~1mm accessory; with film; XRF 2
382,U1536,A,11,H,2,A,500,92,91.937,44593932,SHLF9858781,10,0.16,6,8,10,12,No-Filter,143726,95,9109,106414,470,574,22211,144,52099,49556,21933,740,3605,218461,34369,XRF2,1,10/8/2019,10:23:57,LEVAY_B,11/1/2019 22:39,~1mm accessory; with film; XRF 2
382,U1536,A,11,H,2,A,620,92.12,92.057,44593932,SHLF9858781,10,0.16,6,8,10,12,No-Filter,154075,84,7561,99458,469,677,31578,-1387,49973,43422,20150,1048,3131,263573,37064,XRF2,1,10/8/2019,10:25:36,LEVAY_B,11/1/2019 22:39,~1mm accessory; with film; XRF 2
382,U1536,A,11,H,2,A,740,92.24,92.177,44593932,SHLF9858781,10,0.16,6,8,10,12,No-Filter,142129,93,8625,106743,560,479,23967,-82,55162,39076,21248,652,2903,215711,34935,XRF2,1,10/8/2019,10:27:15,LEVAY_B,11/1/2019 22:39,~1mm accessory; with film; XRF 2
382,U1536,A,11,H,2,A,860,92.36,92.297,44593932,SHLF9858781,10,0.16,6,8,10,12,No-Filter,145664,101,9785,114862,371,659,24097,-1068,60846,36863,21983,534,2531,217721,34927,XRF2,1,10/8/2019,10:28:55,LEVAY_B,11/1/2019 22:39,~1mm accessory; with film; XRF 2
382,U1536,A,11,H,2,A,980,92.48,92.417,44593932,SHLF9858781,10,0.16,6,7,10,12,No-Filter,109679,18,5250,72028,196,558,17882,4056,42539,29104,17204,518,2139,156682,29647,XRF2,1,10/8/2019,10:30:33,LEVAY_B,11/1/2019 22:39,~1mm accessory; with film; XRF 2
382,U1536,A,11,H,2,A,1100,92.6,92.537,44593932,SHLF9858781,10,0.16,6,7,10,12,No-Filter,133139,73,7562,94720,401,490,23053,877,50939,39320,20228,729,2789,197190,32814,XRF2,1,10/8/2019,10:32:11,LEVAY_B,11/1/2019 22:39,~1mm accessory; with film; XRF 2
382,U1536,A,11,H,2,A,1220,92.72,92.657,44593932,SHLF9858781,10,0.16,6,7,10,12,No-Filter,126897,51,6403,86760,309,610,22238,2102,48131,35117,18603,828,2276,193374,31062,XRF2,1,10/8/2019,10:33:50,LEVAY_B,11/1/2019 22:39,~1mm accessory; with film; XRF 2
382,U1536,A,11,H,2,A,1340,92.84,92.777,44593932,SHLF9858781,10,0.16,6,7,10,12,No-Filter,116877,25,4975,73186,289,950,25534,2365,42948,31053,16801,446,2082,165912,31976,XRF2,1,10/8/2019,10:35:27,LEVAY_B,11/1/2019 22:39,~1mm accessory; with film; XRF 2
382,U1536,A,11,H,2,A,1460,92.96,92.897,44593932,SHLF9858781,10,0.16,6,7,10,12,No-Filter,121378,45,5472,79852,363,1143,24414,2534,43604,34299,18000,727,2439,177082,32032,XRF2,1,10/8/2019,10:37:04,LEVAY_B,11/1/2019 22:39,~1mm accessory; with film; XRF 2
382,U1536,A,11,H,4,A,100,94.6,94.41,44593602,SHLF9858841,10,0.16,6,7,10,12,No-Filter,115557,-33,2480,81466,160,2267,58978,-1937,17999,15609,9848,31,1298,110640,39253,XRF2,1,10/8/2019,11:15:41,LEVAY_B,11/1/2019 22:30,~1mm accessory; with film; XRF 2
382,U1536,A,11,H,4,A,220,94.72,94.53,44593602,SHLF9858841,10,0.16,6,7,10,12,No-Filter,117702,-12,2793,93944,189,2363,54664,-1933,19329,16596,10493,194,1274,113901,38590,XRF2,1,10/8/2019,11:17:18,LEVAY_B,11/1/2019 22:30,~1mm accessory; with film; XRF 2
382,U1536,A,11,H,4,A,340,94.84,94.65,44593602,SHLF9858841,10,0.16,6,7,10,12,No-Filter,122309,9,3298,105034,191,2132,52357,-2339,20869,18481,11834,515,1728,121799,38112,XRF2,1,10/8/2019,11:18:52,LEVAY_B,11/1/2019 22:30,~1mm accessory; with film; XRF 2
382,U1536,A,11,H,4,A,460,94.96,94.77,44593602,SHLF9858841,10,0.16,6,7,10,12,No-Filter,120104,0,3023,97661,46,2136,53306,-2034,20219,17964,11410,177,1624,118243,39262,XRF2,1,10/8/2019,11:20:29,LEVAY_B,11/1/2019 22:30,~1mm accessory; with film; XRF 2
382,U1536,A,11,H,4,A,580,95.08,94.89,44593602,SHLF9858841,10,0.16,6,7,10,12,No-Filter,124221,5,2970,105193,177,2224,56957,-2863,19689,17914,11352,205,1404,119425,40183,XRF2,1,10/8/2019,11:22:06,LEVAY_B,11/1/2019 22:30,~1mm accessory; with film; XRF 2
382,U1536,A,11,H,4,A,700,95.2,95.01,44593602,SHLF9858841,10,0.16,6,7,10,12,No-Filter,127492,8,3439,109728,152,2062,54949,-2928,21813,19603,12164,531,1853,126191,40086,XRF2,1,10/8/2019,11:23:43,LEVAY_B,11/1/2019 22:30,~1mm accessory; with film; XRF 2
382,U1536,A,11,H,4,A,820,95.32,95.13,44593602,SHLF9858841,10,0.16,6,7,10,12,No-Filter,126427,31,3020,99180,267,2166,60190,-3204,20777,18824,12118,159,1424,123701,41716,XRF2,1,10/8/2019,11:25:21,LEVAY_B,11/1/2019 22:30,~1mm accessory; with film; XRF 2
382,U1536,A,11,H,4,A,940,95.44,95.25,44593602,SHLF9858841,10,0.16,6,7,10,12,No-Filter,127541,-6,2964,108565,249,2375,58105,-3125,21021,19011,11698,25,1678,124767,40691,XRF2,1,10/8/2019,11:26:58,LEVAY_B,11/1/2019 22:30,~1mm accessory; with film; XRF 2
382,U1536,A,11,H,4,A,1060,95.56,95.37,44593602,SHLF9858841,10,0.16,6,7,10,12,No-Filter,127801,-14,2796,104742,250,3659,59799,-3164,18901,17606,10608,208,1553,127849,41347,XRF2,1,10/8/2019,11:28:35,LEVAY_B,11/1/2019 22:30,~1mm accessory; with film; XRF 2
382,U1536,A,11,H,4,A,1180,95.68,95.49,44593602,SHLF9858841,10,0.16,6,7,10,12,No-Filter,128450,-15,3460,114617,323,2634,54391,-3076,21927,20157,12743,460,1728,130059,39274,XRF2,1,10/8/2019,11:30:12,LEVAY_B,11/1/2019 22:30,~1mm accessory; with film; XRF 2
382,U1536,A,11,H,4,A,1300,95.8,95.61,44593602,SHLF9858841,10,0.16,6,7,10,12,No-Filter,128747,45,3460,107044,228,2324,56214,-3132,23229,20540,13005,281,1748,131907,40845,XRF2,1,10/8/2019,11:31:49,LEVAY_B,11/1/2019 22:30,~1mm accessory; with film; XRF 2
382,U1536,A,11,H,4,A,1420,95.92,95.73,44593602,SHLF9858841,10,0.16,6,7,10,12,No-Filter,129278,45,3939,88947,142,2042,53896,-3074,27886,25099,15739,655,1904,150772,39501,XRF2,1,10/8/2019,11:33:27,LEVAY_B,11/1/2019 22:30,~1mm accessory; with film; XRF 2
382,U1536,A,17,H,4,A,60,151.51,151.51,44593612,SHLF9862371,10,0.16,6,7,10,12,No-Filter,133981,20,6024,119131,215,3230,27523,-1551,37621,27450,18289,698,2223,177552,33831,XRF2,1,10/8/2019,12:03:47,LEVAY_B,11/1/2019 22:31,~1mm accessory; with film; XRF 2
382,U1536,A,17,H,4,A,180,151.63,151.63,44593612,SHLF9862371,10,0.16,6,7,10,12,No-Filter,128326,68,5636,117933,285,2660,29852,-1565,33303,23889,16003,593,2044,164874,31997,XRF2,1,10/8/2019,12:05:25,LEVAY_B,11/1/2019 22:31,~1mm accessory; with film; XRF 2
382,U1536,A,17,H,4,A,300,151.75,151.75,44593612,SHLF9862371,10,0.16,6,7,10,12,No-Filter,132314,25,5729,119001,260,3849,31465,-2106,34097,24384,16296,712,1943,174749,34525,XRF2,1,10/8/2019,12:07:03,LEVAY_B,11/1/2019 22:31,~1mm accessory; with film; XRF 2
382,U1536,A,17,H,4,A,420,151.87,151.87,44593612,SHLF9862371,10,0.16,6,7,10,12,No-Filter,135325,92,6416,127377,316,2913,32396,-2035,37766,25092,17293,693,2098,172099,35559,XRF2,1,10/8/2019,12:08:43,LEVAY_B,11/1/2019 22:31,~1mm accessory; with film; XRF 2
382,U1536,A,17,H,4,A,540,151.99,151.99,44593612,SHLF9862371,10,0.16,6,7,10,12,No-Filter,135617,76,6331,123070,311,4214,31177,-1297,37400,24988,16780,540,2239,182543,34512,XRF2,1,10/8/2019,12:10:23,LEVAY_B,11/1/2019 22:31,~1mm accessory; with film; XRF 2
382,U1536,A,17,H,4,A,660,152.11,152.11,44593612,SHLF9862371,10,0.16,6,7,10,12,No-Filter,135901,30,6560,130071,309,3284,31763,-1779,38129,24420,17399,785,2256,173927,34981,XRF2,1,10/8/2019,12:12:03,LEVAY_B,11/1/2019 22:31,~1mm accessory; with film; XRF 2
382,U1536,A,17,H,4,A,780,152.23,152.23,44593612,SHLF9862371,10,0.16,6,7,10,12,No-Filter,139773,102,7415,137200,443,3144,32072,-2155,40712,25141,18006,840,2224,180507,35666,XRF2,1,10/8/2019,12:13:43,LEVAY_B,11/1/2019 22:31,~1mm accessory; with film; XRF 2
382,U1536,A,17,H,4,A,900,152.35,152.35,44593612,SHLF9862371,10,0.16,6,7,10,12,No-Filter,141661,53,6549,124760,415,6003,32793,-1715,38844,23425,16894,725,2171,202822,35198,XRF2,1,10/8/2019,12:15:22,LEVAY_B,11/1/2019 22:31,~1mm accessory; with film; XRF 2
382,U1536,A,17,H,4,A,1020,152.47,152.47,44593612,SHLF9862371,10,0.16,6,7,10,12,No-Filter,141868,134,7649,134878,364,4498,29711,-1808,44514,24316,18552,768,2078,190799,34786,XRF2,1,10/8/2019,12:17:03,LEVAY_B,11/1/2019 22:31,~1mm accessory; with film; XRF 2
382,U1536,A,17,H,4,A,1140,152.59,152.59,44593612,SHLF9862371,10,0.16,6,7,10,12,No-Filter,130690,46,6683,125734,214,2851,30150,-1411,42222,19067,16090,634,1942,162595,34069,XRF2,1,10/8/2019,12:18:43,LEVAY_B,11/1/2019 22:31,~1mm accessory; with film; XRF 2
382,U1536,A,17,H,4,A,1260,152.71,152.71,44593612,SHLF9862371,10,0.16,6,7,10,12,No-Filter,136982,29,6310,127188,426,5921,32641,-1720,39111,20984,15679,650,2070,184528,35027,XRF2,1,10/8/2019,12:20:22,LEVAY_B,11/1/2019 22:31,~1mm accessory; with film; XRF 2
382,U1536,A,17,H,4,A,1380,152.83,152.83,44593612,SHLF9862371,10,0.16,6,7,10,12,No-Filter,142134,158,7787,139979,415,3406,30771,-2782,46156,22229,17956,383,1901,187411,35577,XRF2,1,10/8/2019,12:22:01,LEVAY_B,11/1/2019 22:31,~1mm accessory; with film; XRF 2
382,U1536,A,17,H,5,A,40,152.95,152.95,44593622,SHLF9862401,10,0.16,6,8,10,12,No-Filter,144879,33,8445,150070,380,2486,24253,-2896,51169,22339,19265,586,2074,195931,34753,XRF2,1,10/8/2019,13:27:11,LEVAY_B,11/1/2019 22:31,~1mm accessory; with film; XRF 2
382,U1536,A,17,H,5,A,280,153.19,153.19,44593622,SHLF9862401,10,0.16,6,7,10,12,No-Filter,136563,90,8043,137779,323,1763,24507,-1819,50854,22986,17368,497,1739,177418,32154,XRF2,1,10/8/2019,13:28:51,LEVAY_B,11/1/2019 22:31,~1mm accessory; with film; XRF 2
382,U1536,A,17,H,5,A,520,153.43,153.43,44593622,SHLF9862401,10,0.16,6,8,10,12,No-Filter,154389,134,9770,132705,515,1839,20097,-1600,54698,67697,22045,930,2937,218159,33655,XRF2,1,10/8/2019,13:30:32,LEVAY_B,11/1/2019 22:31,~1mm accessory; with film; XRF 2
382,U1536,A,17,H,5,A,760,153.67,153.67,44593622,SHLF9862401,10,0.16,6,8,10,12,No-Filter,167529,193,12553,138899,1264,1042,21710,-2847,61075,68050,24996,767,4898,251165,34727,XRF2,1,10/8/2019,13:32:13,LEVAY_B,11/1/2019 22:31,~1mm accessory; with film; XRF 2
382,U1536,A,17,H,5,A,1000,153.91,153.91,44593622,SHLF9862401,10,0.16,6,8,10,12,No-Filter,165861,259,12893,144173,642,475,18694,-2426,68160,63118,24691,894,3083,246738,35181,XRF2,1,10/8/2019,13:33:54,LEVAY_B,11/1/2019 22:31,~1mm accessory; with film; XRF 2
382,U1536,A,21,H,5,A,80,190.94,190.703,44593632,SHLF9864491,10,0.16,6,7,10,12,No-Filter,133466,41,6197,125726,360,1433,27350,-1533,38163,29431,16832,502,2022,173038,31497,XRF2,1,10/8/2019,13:56:24,LEVAY_B,11/1/2019 22:31,~1mm accessory; with film; XRF 2
382,U1536,A,21,H,5,A,320,191.18,190.943,44593632,SHLF9864491,10,0.16,6,8,10,12,No-Filter,144201,93,7855,138243,297,2343,28058,-2019,47566,25595,18760,917,2546,198345,33672,XRF2,1,10/8/2019,13:58:05,LEVAY_B,11/1/2019 22:31,~1mm accessory; with film; XRF 2
382,U1536,A,21,H,5,A,560,191.42,191.183,44593632,SHLF9864491,10,0.16,6,7,10,12,No-Filter,131604,119,7497,128217,437,1386,27188,-1331,46158,21577,17099,662,1932,168994,32451,XRF2,1,10/8/2019,13:59:45,LEVAY_B,11/1/2019 22:31,~1mm accessory; with film; XRF 2
382,U1536,A,21,H,5,A,800,191.66,191.423,44593632,SHLF9864491,10,0.16,6,7,10,12,No-Filter,137238,156,7657,127546,368,1228,26928,-1295,43854,29004,18578,746,2196,187571,33288,XRF2,1,10/8/2019,14:01:25,LEVAY_B,11/1/2019 22:31,~1mm accessory; with film; XRF 2
382,U1536,A,21,H,5,A,1040,191.9,191.663,44593632,SHLF9864491,10,0.16,6,7,10,12,No-Filter,128663,46,5632,114704,269,1423,25792,-1800,33230,28333,17158,675,2272,177166,31179,XRF2,1,10/8/2019,14:03:06,LEVAY_B,11/1/2019 22:31,~1mm accessory; with film; XRF 2
382,U1536,A,21,H,6,A,80,192.4,192.104,44593642,SHLF9864521,10,0.16,6,7,10,12,No-Filter,138698,81,5509,125800,307,2722,41242,-2585,30950,30175,15298,779,2092,175844,37441,XRF2,1,10/8/2019,14:19:17,LEVAY_B,11/1/2019 22:31,~1mm accessory; with film; XRF 2
382,U1536,A,21,H,6,A,320,192.64,192.344,44593642,SHLF9864521,10,0.16,6,7,10,12,No-Filter,130878,78,5080,122938,309,2089,35862,-1532,29309,33095,14411,586,2077,157361,34549,XRF2,1,10/8/2019,14:20:57,LEVAY_B,11/1/2019 22:31,~1mm accessory; with film; XRF 2
382,U1536,A,21,H,6,A,560,192.88,192.584,44593642,SHLF9864521,10,0.16,6,7,10,12,No-Filter,122801,40,4189,108298,209,2227,36291,-658,25218,24304,13310,500,1838,150684,34353,XRF2,1,10/8/2019,14:22:35,LEVAY_B,11/1/2019 22:31,~1mm accessory; with film; XRF 2
382,U1536,A,21,H,6,A,800,193.12,192.824,44593642,SHLF9864521,10,0.16,6,7,10,12,No-Filter,119331,21,3802,105989,252,2021,37152,-1461,23161,23352,12397,451,1774,138563,34164,XRF2,1,10/8/2019,14:24:13,LEVAY_B,11/1/2019 22:31,~1mm accessory; with film; XRF 2
382,U1536,A,21,H,6,A,1040,193.36,193.064,44593642,SHLF9864521,10,0.16,6,7,10,12,No-Filter,111491,2,3191,94072,156,2293,34893,-380,22196,17563,10984,508,1659,131404,32513,XRF2,1,10/8/2019,14:25:50,LEVAY_B,11/1/2019 22:31,~1mm accessory; with film; XRF 2
382,U1536,A,21,H,6,A,1280,193.6,193.304,44593642,SHLF9864521,10,0.16,6,7,10,12,No-Filter,111407,-27,3230,92042,143,1936,36374,412,20834,18507,11052,605,1754,130688,32781,XRF2,1,10/8/2019,14:27:28,LEVAY_B,11/1/2019 22:31,~1mm accessory; with film; XRF 2
382,U1536,A,22,H,4,A,80,197.91,197.792,44593652,SHLF9865281,10,0.16,6,7,10,12,No-Filter,118122,18,4330,114974,237,1444,28007,-1505,27376,17553,12551,773,2040,142452,30472,XRF2,1,10/8/2019,14:45:52,LEVAY_B,11/1/2019 22:31,~1mm accessory; with film; XRF 2
382,U1536,A,22,H,4,A,320,198.15,198.032,44593652,SHLF9865281,10,0.16,6,7,10,12,No-Filter,112386,58,3960,103371,194,2650,25493,-1585,24517,16088,11385,357,2132,143240,29682,XRF2,1,10/8/2019,14:47:30,LEVAY_B,11/1/2019 22:31,~1mm accessory; with film; XRF 2
382,U1536,A,22,H,4,A,560,198.39,198.272,44593652,SHLF9865281,10,0.16,6,7,10,12,No-Filter,123101,63,5370,123034,322,1728,26748,-1610,33104,18906,13622,604,1961,153198,31854,XRF2,1,10/8/2019,14:49:08,LEVAY_B,11/1/2019 22:31,~1mm accessory; with film; XRF 2
382,U1536,A,22,H,4,A,800,198.63,198.512,44593652,SHLF9865281,10,0.16,6,7,10,12,No-Filter,126732,60,5689,120701,288,1507,26682,-1317,37112,19860,15080,427,2157,166213,32270,XRF2,1,10/8/2019,14:50:46,LEVAY_B,11/1/2019 22:31,~1mm accessory; with film; XRF 2
382,U1536,A,22,H,4,A,1040,198.87,198.752,44593652,SHLF9865281,10,0.16,6,7,10,12,No-Filter,125374,15,5648,119342,306,1184,26144,-2007,35570,19886,13935,328,2262,162307,31940,XRF2,1,10/8/2019,14:52:24,LEVAY_B,11/1/2019 22:31,~1mm accessory; with film; XRF 2
382,U1536,A,22,H,4,A,1280,199.11,198.992,44593652,SHLF9865281,10,0.16,6,7,10,12,No-Filter,138736,133,7805,130269,433,706,26777,-1573,46514,27584,18071,519,2963,188943,33187,XRF2,1,10/8/2019,14:54:02,LEVAY_B,11/1/2019 22:31,~1mm accessory; with film; XRF 2
382,U1536,A,22,H,5,A,80,199.38,199.21,44593662,SHLF9865311,10,0.16,6,8,10,12,No-Filter,151715,139,9324,151217,435,1405,29457,-2553,50013,32832,19360,925,3062,204449,35783,XRF2,1,10/8/2019,15:12:02,LEVAY_B,11/1/2019 22:31,~1mm accessory; with film; XRF 2
382,U1536,A,22,H,5,A,320,199.62,199.45,44593662,SHLF9865311,10,0.16,6,8,10,12,No-Filter,154607,178,9931,139893,397,1629,26036,-2476,51444,52747,21022,558,3448,216065,34902,XRF2,1,10/8/2019,15:13:43,LEVAY_B,11/1/2019 22:31,~1mm accessory; with film; XRF 2
382,U1536,A,22,H,5,A,560,199.86,199.69,44593662,SHLF9865311,10,0.16,6,8,10,12,No-Filter,144704,132,8630,133262,396,1354,26303,-1416,47125,38629,20024,807,3405,199268,33617,XRF2,1,10/8/2019,15:15:25,LEVAY_B,11/1/2019 22:31,~1mm accessory; with film; XRF 2
382,U1536,A,22,H,5,A,800,200.1,199.93,44593662,SHLF9865311,10,0.16,6,8,10,12,No-Filter,151175,107,8891,145108,386,1302,29109,-2990,47779,39629,20546,950,3294,203201,35674,XRF2,1,10/8/2019,15:17:06,LEVAY_B,11/1/2019 22:31,~1mm accessory; with film; XRF 2
382,U1536,A,22,H,5,A,1040,200.34,200.17,44593662,SHLF9865311,10,0.16,6,8,10,12,No-Filter,153424,145,7918,141594,462,1145,30828,-2506,46646,36539,18820,735,2639,217861,36455,XRF2,1,10/8/2019,15:18:48,LEVAY_B,11/1/2019 22:31,~1mm accessory; with film; XRF 2
382,U1536,A,22,H,5,A,1280,200.58,200.41,44593662,SHLF9865311,10,0.16,6,7,10,12,No-Filter,112540,12,3639,112011,245,2365,32567,-719,20933,16350,10212,564,1915,122163,32541,XRF2,1,10/8/2019,15:20:29,LEVAY_B,11/1/2019 22:31,~1mm accessory; with film; XRF 2
382,U1536,A,22,H,5,A,1400,200.7,200.53,44593662,SHLF9865311,10,0.16,6,7,10,12,No-Filter,122502,0,3714,127039,176,2309,31683,-1622,22951,17734,12471,252,1761,129849,33335,XRF2,1,10/8/2019,15:21:18,LEVAY_B,11/1/2019 22:31,~1mm accessory; with film; XRF 2