File: 382_U1537A_XRF.csv
Expedition,Site,Hole,Core,Type,Section,A/W,Offset (mm),Depth,CSF-B (m),Test No.,TextID,Voltage (kV),Tube Current (mA),Live Time (s),Real Time (s),Down-Core Slit (mm),Cross-Core Slit (mm),Filter,Total Counts Per Second,Ca,Fe,Ni,As,Br,Rb,Sr,Y,Zr,Nb,Mo,Ag,Ba,Instrument,Scan Number,Date of Measure,Time of Measure,Uploaded By,Date Uploaded,Comment
382,U1537,A,2,H,2,A,20,4.02,3.986,44592452,SHLF9921831,50,0.75,10,15,10,12,Cu,98447,759,7571,4893,84,1658,486,1153,118,1201,76,5,289414,5055,XRF1,1,10/2/2019,13:21:14,LEVAY_B,11/1/2019 21:34,~1mm accessory; with film; XRF 1
382,U1537,A,2,H,2,A,180,4.18,4.146,44592452,SHLF9921831,50,0.75,10,15,10,12,Cu,99504,651,8861,4848,101,1554,667,1390,115,1398,66,61,277035,6494,XRF1,1,10/2/2019,13:24:23,LEVAY_B,11/1/2019 21:34,~1mm accessory; with film; XRF 1
382,U1537,A,2,H,2,A,340,4.34,4.306,44592452,SHLF9921831,50,0.75,10,15,10,12,Cu,99272,708,8239,4971,50,1642,571,1247,108,1294,107,47,278284,6355,XRF1,1,10/2/2019,13:27:32,LEVAY_B,11/1/2019 21:34,~1mm accessory; with film; XRF 1
382,U1537,A,2,H,2,A,500,4.5,4.466,44592452,SHLF9921831,50,0.75,10,15,10,12,Cu,99234,937,9187,4787,73,1503,644,1386,68,1336,67,60,274559,6484,XRF1,1,10/2/2019,13:30:43,LEVAY_B,11/1/2019 21:34,~1mm accessory; with film; XRF 1
382,U1537,A,2,H,2,A,660,4.66,4.626,44592452,SHLF9921831,50,0.75,10,15,10,12,Cu,96741,680,7951,4808,57,1512,556,1276,104,1189,101,26,276026,5538,XRF1,1,10/2/2019,13:33:52,LEVAY_B,11/1/2019 21:34,~1mm accessory; with film; XRF 1
382,U1537,A,2,H,2,A,820,4.82,4.786,44592452,SHLF9921831,50,0.75,10,15,10,12,Cu,98774,723,8814,4942,51,1558,552,1354,221,1495,122,113,275320,6094,XRF1,1,10/2/2019,13:37:03,LEVAY_B,11/1/2019 21:34,~1mm accessory; with film; XRF 1
382,U1537,A,2,H,2,A,980,4.98,4.946,44592452,SHLF9921831,50,0.75,10,15,10,12,Cu,99033,722,7937,5007,77,1645,486,1297,178,1310,83,81,278955,5432,XRF1,1,10/2/2019,13:40:13,LEVAY_B,11/1/2019 21:34,~1mm accessory; with film; XRF 1
382,U1537,A,2,H,2,A,1140,5.14,5.106,44592452,SHLF9921831,50,0.75,10,15,10,12,Cu,98479,886,8413,4883,67,1468,654,1392,167,1364,107,82,273174,6181,XRF1,1,10/2/2019,13:43:23,LEVAY_B,11/1/2019 21:34,~1mm accessory; with film; XRF 1
382,U1537,A,2,H,2,A,1300,5.3,5.266,44592452,SHLF9921831,50,0.75,10,15,10,12,Cu,98356,734,9048,4884,83,1514,649,1545,129,1470,117,108,276817,6344,XRF1,1,10/2/2019,13:46:33,LEVAY_B,11/1/2019 21:34,~1mm accessory; with film; XRF 1
382,U1537,A,2,H,2,A,1460,5.46,5.426,44592452,SHLF9921831,50,0.75,10,15,10,12,Cu,99911,796,10020,5076,68,1376,712,1521,182,1548,130,79,281123,6792,XRF1,1,10/2/2019,13:49:49,LEVAY_B,11/1/2019 21:34,~1mm accessory; with film; XRF 1
382,U1537,A,2,H,3,A,70,5.57,5.502,44592462,SHLF9921861,50,0.75,10,15,10,12,Cu,98100,810,8035,5034,85,1646,676,1466,209,1507,102,137,272025,6255,XRF1,1,10/2/2019,15:39:34,LEVAY_B,11/1/2019 21:35,~1mm accessory; with film; XRF 1
382,U1537,A,2,H,3,A,150,5.65,5.582,44592462,SHLF9921861,50,0.75,10,15,10,12,Cu,98983,748,6880,4994,112,1646,598,1330,171,1360,72,89,273755,6242,XRF1,1,10/2/2019,15:42:46,LEVAY_B,11/1/2019 21:35,~1mm accessory; with film; XRF 1
382,U1537,A,2,H,3,A,230,5.73,5.662,44592462,SHLF9921861,50,0.75,10,15,10,12,Cu,99517,794,6112,4799,67,1804,531,1336,178,1189,34,92,274939,4515,XRF1,1,10/2/2019,15:46:05,LEVAY_B,11/1/2019 21:35,~1mm accessory; with film; XRF 1
382,U1537,A,2,H,3,A,310,5.81,5.742,44592462,SHLF9921861,50,0.75,10,15,10,12,Cu,99072,857,8216,4839,57,1606,669,1423,143,1456,64,35,273533,5962,XRF1,1,10/2/2019,15:49:13,LEVAY_B,11/1/2019 21:35,~1mm accessory; with film; XRF 1
382,U1537,A,2,H,3,A,390,5.89,5.822,44592462,SHLF9921861,50,0.75,10,15,10,12,Cu,95919,698,7697,4794,66,1479,508,1271,170,1321,95,118,273853,5956,XRF1,1,10/2/2019,15:52:27,LEVAY_B,11/1/2019 21:35,~1mm accessory; with film; XRF 1
382,U1537,A,2,H,3,A,470,5.97,5.902,44592462,SHLF9921861,50,0.75,10,15,10,12,Cu,98135,844,6134,4899,54,1659,508,1475,182,1556,125,106,271257,5153,XRF1,1,10/2/2019,15:55:40,LEVAY_B,11/1/2019 21:35,~1mm accessory; with film; XRF 1
382,U1537,A,2,H,3,A,550,6.05,5.982,44592462,SHLF9921861,50,0.75,10,15,10,12,Cu,98371,754,7231,5033,105,1612,505,1360,132,1517,74,19,275681,5234,XRF1,1,10/2/2019,15:58:54,LEVAY_B,11/1/2019 21:35,~1mm accessory; with film; XRF 1
382,U1537,A,2,H,3,A,630,6.13,6.062,44592462,SHLF9921861,50,0.75,10,15,10,12,Cu,98704,761,9239,4980,66,1633,463,1669,212,1814,82,97,275775,4865,XRF1,1,10/2/2019,16:02:03,LEVAY_B,11/1/2019 21:35,~1mm accessory; with film; XRF 1
382,U1537,A,2,H,3,A,710,6.21,6.142,44592462,SHLF9921861,50,0.75,10,15,10,12,Cu,97232,778,10056,4795,62,1413,501,1754,230,2012,83,57,275737,4400,XRF1,1,10/2/2019,16:05:16,LEVAY_B,11/1/2019 21:35,~1mm accessory; with film; XRF 1
382,U1537,A,2,H,3,A,790,6.29,6.222,44592462,SHLF9921861,50,0.75,10,15,10,12,Cu,97525,770,7188,4879,66,1471,716,1171,137,1325,39,99,272095,5801,XRF1,1,10/2/2019,16:08:27,LEVAY_B,11/1/2019 21:35,~1mm accessory; with film; XRF 1
382,U1537,A,2,H,3,A,870,6.37,6.302,44592462,SHLF9921861,50,0.75,10,15,10,12,Cu,98816,700,6317,4922,83,1517,759,1243,162,1376,85,80,274495,6065,XRF1,1,10/2/2019,16:11:38,LEVAY_B,11/1/2019 21:35,~1mm accessory; with film; XRF 1
382,U1537,A,2,H,3,A,950,6.45,6.382,44592462,SHLF9921861,50,0.75,10,15,10,12,Cu,98918,749,7624,4982,123,1504,784,1327,251,1689,107,85,274878,6837,XRF1,1,10/2/2019,16:14:47,LEVAY_B,11/1/2019 21:35,~1mm accessory; with film; XRF 1
382,U1537,A,2,H,3,A,1030,6.53,6.462,44592462,SHLF9921861,50,0.75,10,15,10,12,Cu,96362,677,6183,4846,56,1487,761,1246,186,1592,129,111,272901,5621,XRF1,1,10/2/2019,16:17:56,LEVAY_B,11/1/2019 21:35,~1mm accessory; with film; XRF 1
382,U1537,A,2,H,3,A,1110,6.61,6.542,44592462,SHLF9921861,50,0.75,10,15,10,12,Cu,98319,765,9424,4735,110,1399,810,1281,244,1649,63,51,273441,6266,XRF1,1,10/2/2019,16:21:08,LEVAY_B,11/1/2019 21:35,~1mm accessory; with film; XRF 1
382,U1537,A,2,H,3,A,1190,6.69,6.622,44592462,SHLF9921861,50,0.75,10,15,10,12,Cu,98268,771,7984,4926,96,1447,814,1297,186,1524,85,10,276923,6933,XRF1,1,10/2/2019,16:24:19,LEVAY_B,11/1/2019 21:35,~1mm accessory; with film; XRF 1
382,U1537,A,2,H,3,A,1270,6.77,6.702,44592462,SHLF9921861,50,0.75,10,15,10,12,Cu,98519,800,6700,4834,75,1743,593,1058,104,1167,104,51,271896,5150,XRF1,1,10/2/2019,16:27:31,LEVAY_B,11/1/2019 21:35,~1mm accessory; with film; XRF 1
382,U1537,A,2,H,3,A,1350,6.85,6.782,44592462,SHLF9921861,50,0.75,10,15,10,12,Cu,97101,695,5725,4803,94,1559,683,1227,194,1514,88,59,268338,6168,XRF1,1,10/2/2019,16:30:44,LEVAY_B,11/1/2019 21:35,~1mm accessory; with film; XRF 1
382,U1537,A,2,H,3,A,1430,6.93,6.862,44592462,SHLF9921861,50,0.75,10,15,10,12,Cu,96010,899,8844,4660,73,1402,988,1326,267,1763,135,113,265969,6696,XRF1,1,10/2/2019,16:33:56,LEVAY_B,11/1/2019 21:35,~1mm accessory; with film; XRF 1
382,U1537,A,2,H,4,A,20,7.02,6.918,44592472,SHLF9921891,50,0.75,10,15,10,12,Cu,94711,811,12784,4688,103,951,1200,1529,334,2680,194,53,268635,7508,XRF1,1,10/3/2019,11:23:57,LEVAY_B,11/1/2019 21:35,~1mm accessory; with film; XRF 1
382,U1537,A,2,H,4,A,100,7.1,6.998,44592472,SHLF9921891,50,0.75,10,15,10,12,Cu,96528,914,11984,4788,155,1196,1090,1562,201,2307,80,42,267080,8007,XRF1,1,10/3/2019,11:27:11,LEVAY_B,11/1/2019 21:35,~1mm accessory; with film; XRF 1
382,U1537,A,2,H,4,A,180,7.18,7.078,44592472,SHLF9921891,50,0.75,10,15,10,12,Cu,96400,824,8203,4744,101,1401,656,1242,103,1358,72,79,266339,6815,XRF1,1,10/3/2019,11:30:26,LEVAY_B,11/1/2019 21:35,~1mm accessory; with film; XRF 1
382,U1537,A,2,H,4,A,260,7.26,7.158,44592472,SHLF9921891,50,0.75,10,15,10,12,Cu,96708,715,7009,4757,100,1608,574,1173,162,1287,138,87,268110,5999,XRF1,1,10/3/2019,11:33:37,LEVAY_B,11/1/2019 21:35,~1mm accessory; with film; XRF 1
382,U1537,A,2,H,4,A,340,7.34,7.238,44592472,SHLF9921891,50,0.75,10,15,10,12,Cu,97561,916,6516,4913,76,1611,586,1192,203,1115,85,142,268915,5829,XRF1,1,10/3/2019,11:36:45,LEVAY_B,11/1/2019 21:35,~1mm accessory; with film; XRF 1
382,U1537,A,2,H,4,A,420,7.42,7.318,44592472,SHLF9921891,50,0.75,10,15,10,12,Cu,96725,757,9395,4712,98,1247,806,1294,121,1476,102,104,269688,7499,XRF1,1,10/3/2019,11:39:57,LEVAY_B,11/1/2019 21:35,~1mm accessory; with film; XRF 1
382,U1537,A,2,H,4,A,500,7.5,7.398,44592472,SHLF9921891,50,0.75,10,15,10,12,Cu,97137,701,9778,4870,113,1478,725,1291,210,1462,112,40,267336,7945,XRF1,1,10/3/2019,11:43:08,LEVAY_B,11/1/2019 21:35,~1mm accessory; with film; XRF 1
382,U1537,A,2,H,4,A,580,7.58,7.478,44592472,SHLF9921891,50,0.75,10,15,10,12,Cu,95712,799,9558,4777,92,1241,776,1392,164,1476,32,36,268687,8723,XRF1,1,10/3/2019,11:46:20,LEVAY_B,11/1/2019 21:35,~1mm accessory; with film; XRF 1
382,U1537,A,2,H,4,A,660,7.66,7.558,44592472,SHLF9921891,50,0.75,10,15,10,12,Cu,96497,600,11183,4867,74,1295,948,1439,207,1743,163,118,270479,9529,XRF1,1,10/3/2019,11:49:32,LEVAY_B,11/1/2019 21:35,~1mm accessory; with film; XRF 1
382,U1537,A,2,H,4,A,740,7.74,7.638,44592472,SHLF9921891,50,0.75,10,15,10,12,Cu,96182,703,13011,4717,63,1098,1026,1740,231,2017,186,70,271480,11634,XRF1,1,10/3/2019,11:52:48,LEVAY_B,11/1/2019 21:35,~1mm accessory; with film; XRF 1
382,U1537,A,2,H,4,A,820,7.82,7.718,44592472,SHLF9921891,50,0.75,10,15,10,12,Cu,96910,752,14004,4718,118,968,1121,1731,268,2205,104,41,273119,10953,XRF1,1,10/3/2019,11:55:58,LEVAY_B,11/1/2019 21:35,~1mm accessory; with film; XRF 1
382,U1537,A,2,H,4,A,900,7.9,7.798,44592472,SHLF9921891,50,0.75,10,15,10,12,Cu,97295,770,12968,4911,116,1186,1127,1684,259,1982,129,82,273639,10734,XRF1,1,10/3/2019,11:59:12,LEVAY_B,11/1/2019 21:35,~1mm accessory; with film; XRF 1
382,U1537,A,2,H,4,A,980,7.98,7.878,44592472,SHLF9921891,50,0.75,10,15,10,12,Cu,96785,708,13532,4703,153,1224,1018,1593,253,1813,92,77,272295,9150,XRF1,1,10/3/2019,12:02:26,LEVAY_B,11/1/2019 21:35,~1mm accessory; with film; XRF 1
382,U1537,A,2,H,4,A,1060,8.06,7.958,44592472,SHLF9921891,50,0.75,10,15,10,12,Cu,96146,845,16380,4780,74,967,1134,1662,252,2021,142,73,273128,9592,XRF1,1,10/3/2019,12:05:34,LEVAY_B,11/1/2019 21:35,~1mm accessory; with film; XRF 1
382,U1537,A,2,H,4,A,1140,8.14,8.038,44592472,SHLF9921891,50,0.75,10,15,10,12,Cu,97090,765,15041,4834,95,967,1162,1775,219,2223,195,65,273593,9362,XRF1,1,10/3/2019,12:08:49,LEVAY_B,11/1/2019 21:35,~1mm accessory; with film; XRF 1
382,U1537,A,2,H,4,A,1220,8.22,8.118,44592472,SHLF9921891,50,0.75,10,15,10,12,Cu,95514,727,15197,4749,103,1001,1188,1725,236,2401,190,65,270428,9279,XRF1,1,10/3/2019,12:12:01,LEVAY_B,11/1/2019 21:35,~1mm accessory; with film; XRF 1
382,U1537,A,2,H,4,A,1300,8.3,8.198,44592472,SHLF9921891,50,0.75,10,15,10,12,Cu,98164,821,13249,4720,110,1095,1086,1744,303,1933,114,109,279364,8941,XRF1,1,10/3/2019,12:15:14,LEVAY_B,11/1/2019 21:35,~1mm accessory; with film; XRF 1
382,U1537,A,2,H,4,A,1380,8.38,8.278,44592472,SHLF9921891,50,0.75,10,15,10,12,Cu,96798,716,16099,4734,72,1042,998,1768,206,1813,209,48,292795,7305,XRF1,1,10/3/2019,12:18:27,LEVAY_B,11/1/2019 21:35,~1mm accessory; with film; XRF 1
382,U1537,A,2,H,5,A,10,8.51,8.374,44592482,SHLF9921921,50,0.75,10,15,10,12,Cu,93515,888,19097,4627,76,831,1129,2180,218,2093,99,20,265001,8564,XRF1,1,10/3/2019,14:07:28,LEVAY_B,11/1/2019 21:35,~1mm accessory; with film; XRF 1
382,U1537,A,2,H,5,A,90,8.59,8.454,44592482,SHLF9921921,50,0.75,10,15,10,12,Cu,93067,957,22642,4436,88,755,1309,2457,318,2409,112,59,262290,8889,XRF1,1,10/3/2019,14:10:43,LEVAY_B,11/1/2019 21:35,~1mm accessory; with film; XRF 1
382,U1537,A,2,H,5,A,170,8.67,8.534,44592482,SHLF9921921,50,0.75,10,15,10,12,Cu,91656,1093,25216,4426,107,612,1095,2698,290,2339,147,46,260270,8643,XRF1,1,10/3/2019,14:13:59,LEVAY_B,11/1/2019 21:35,~1mm accessory; with film; XRF 1
382,U1537,A,2,H,5,A,250,8.75,8.614,44592482,SHLF9921921,50,0.75,10,15,10,12,Cu,91144,967,23884,4329,126,705,1155,2723,298,2435,128,57,260277,8244,XRF1,1,10/3/2019,14:17:08,LEVAY_B,11/1/2019 21:35,~1mm accessory; with film; XRF 1
382,U1537,A,2,H,5,A,330,8.83,8.694,44592482,SHLF9921921,50,0.75,10,15,10,12,Cu,91523,983,26032,4359,95,628,1065,2713,371,2374,118,67,259824,8019,XRF1,1,10/3/2019,14:20:22,LEVAY_B,11/1/2019 21:35,~1mm accessory; with film; XRF 1
382,U1537,A,2,H,5,A,410,8.91,8.774,44592482,SHLF9921921,50,0.75,10,15,10,12,Cu,91253,1192,23609,4337,75,613,1206,2805,400,2560,184,41,260561,8520,XRF1,1,10/3/2019,14:23:30,LEVAY_B,11/1/2019 21:35,~1mm accessory; with film; XRF 1
382,U1537,A,2,H,5,A,490,8.99,8.854,44592482,SHLF9921921,50,0.75,10,15,10,12,Cu,90356,955,25434,4356,59,510,995,2587,405,2454,146,65,260463,7809,XRF1,1,10/3/2019,14:26:42,LEVAY_B,11/1/2019 21:35,~1mm accessory; with film; XRF 1
382,U1537,A,2,H,5,A,570,9.07,8.934,44592482,SHLF9921921,50,0.75,10,15,10,12,Cu,91089,947,24268,4310,80,607,1201,2870,320,2442,187,89,259863,9201,XRF1,1,10/3/2019,14:29:52,LEVAY_B,11/1/2019 21:35,~1mm accessory; with film; XRF 1
382,U1537,A,2,H,5,A,650,9.15,9.014,44592482,SHLF9921921,50,0.75,10,15,10,12,Cu,90658,879,26470,4344,80,606,1074,2691,347,2278,184,5,261116,7679,XRF1,1,10/3/2019,14:33:02,LEVAY_B,11/1/2019 21:35,~1mm accessory; with film; XRF 1
382,U1537,A,2,H,5,A,730,9.23,9.094,44592482,SHLF9921921,50,0.75,10,15,10,12,Cu,91541,1030,24784,4537,115,563,1236,2912,331,2512,135,17,263250,8431,XRF1,1,10/3/2019,14:36:13,LEVAY_B,11/1/2019 21:35,~1mm accessory; with film; XRF 1
382,U1537,A,2,H,5,A,810,9.31,9.174,44592482,SHLF9921921,50,0.75,10,15,10,12,Cu,90910,1051,23805,4336,85,528,1253,2938,349,2484,105,0,262033,8705,XRF1,1,10/3/2019,14:39:27,LEVAY_B,11/1/2019 21:35,~1mm accessory; with film; XRF 1
382,U1537,A,2,H,5,A,890,9.39,9.254,44592482,SHLF9921921,50,0.75,10,15,10,12,Cu,90582,914,25291,4293,117,600,1111,2796,328,2469,182,39,260000,8463,XRF1,1,10/3/2019,14:42:33,LEVAY_B,11/1/2019 21:35,~1mm accessory; with film; XRF 1
382,U1537,A,2,H,5,A,970,9.47,9.334,44592482,SHLF9921921,50,0.75,10,15,10,12,Cu,91096,964,23155,4434,115,678,1257,2828,325,2460,201,60,260458,8302,XRF1,1,10/3/2019,14:45:40,LEVAY_B,11/1/2019 21:35,~1mm accessory; with film; XRF 1
382,U1537,A,2,H,5,A,1050,9.55,9.414,44592482,SHLF9921921,50,0.75,10,15,10,12,Cu,91561,908,23355,4584,92,542,1347,2759,391,3117,213,62,259732,9064,XRF1,1,10/3/2019,14:48:48,LEVAY_B,11/1/2019 21:35,~1mm accessory; with film; XRF 1
382,U1537,A,2,H,5,A,1130,9.63,9.494,44592482,SHLF9921921,50,0.75,10,15,10,12,Cu,91579,1120,25145,4270,80,657,1138,2779,327,2433,160,61,260239,8341,XRF1,1,10/3/2019,14:51:57,LEVAY_B,11/1/2019 21:35,~1mm accessory; with film; XRF 1
382,U1537,A,2,H,5,A,1210,9.71,9.574,44592482,SHLF9921921,50,0.75,10,15,10,12,Cu,90489,822,22503,4437,88,542,1165,2895,382,2539,65,-18,259236,9151,XRF1,1,10/3/2019,14:55:08,LEVAY_B,11/1/2019 21:35,~1mm accessory; with film; XRF 1
382,U1537,A,2,H,5,A,1290,9.79,9.654,44592482,SHLF9921921,50,0.75,10,15,10,12,Cu,90723,1078,23736,4359,97,529,1134,2948,360,2415,137,14,261240,8720,XRF1,1,10/3/2019,14:58:19,LEVAY_B,11/1/2019 21:35,~1mm accessory; with film; XRF 1
382,U1537,A,2,H,5,A,1370,9.87,9.734,44592482,SHLF9921921,50,0.75,10,15,10,12,Cu,91035,1133,25283,4538,85,565,1190,3075,317,2536,163,-4,261769,8519,XRF1,1,10/3/2019,15:01:26,LEVAY_B,11/1/2019 21:35,~1mm accessory; with film; XRF 1
382,U1537,A,2,H,5,A,1450,9.95,9.814,44592482,SHLF9921921,50,0.75,10,14,10,12,Cu,89817,992,24546,4248,69,502,1103,2943,269,2237,206,34,264214,8090,XRF1,1,10/3/2019,15:04:46,LEVAY_B,11/1/2019 21:35,~1mm accessory; with film; XRF 1
382,U1537,A,2,H,6,A,50,10.05,9.881,44592492,SHLF9921951,50,0.75,10,14,10,12,Cu,88683,1079,21731,4124,94,501,1060,3008,320,2368,134,23,259537,7971,XRF1,1,10/4/2019,11:33:41,LEVAY_B,11/1/2019 21:35,~1mm accessory; with film; XRF 1
382,U1537,A,2,H,6,A,130,10.13,9.961,44592492,SHLF9921951,50,0.75,10,14,10,12,Cu,89498,1179,23702,4348,97,602,1054,3010,308,2368,129,17,261039,8095,XRF1,1,10/4/2019,11:36:52,LEVAY_B,11/1/2019 21:35,~1mm accessory; with film; XRF 1
382,U1537,A,2,H,6,A,210,10.21,10.041,44592492,SHLF9921951,50,0.75,10,14,10,12,Cu,87968,1094,23253,4202,87,493,985,2863,335,2236,104,37,259053,7222,XRF1,1,10/4/2019,11:40:04,LEVAY_B,11/1/2019 21:35,~1mm accessory; with film; XRF 1
382,U1537,A,2,H,6,A,290,10.29,10.121,44592492,SHLF9921951,50,0.75,10,14,10,12,Cu,89048,1173,22653,4255,65,448,1032,2892,360,2344,178,40,262558,7946,XRF1,1,10/4/2019,11:43:12,LEVAY_B,11/1/2019 21:35,~1mm accessory; with film; XRF 1
382,U1537,A,2,H,6,A,370,10.37,10.201,44592492,SHLF9921951,50,0.75,10,15,10,12,Cu,91284,1107,24894,4400,94,529,1270,3104,338,2593,111,78,260428,8610,XRF1,1,10/4/2019,11:46:14,LEVAY_B,11/1/2019 21:35,~1mm accessory; with film; XRF 1
382,U1537,A,2,H,6,A,450,10.45,10.281,44592492,SHLF9921951,50,0.75,10,15,10,12,Cu,91159,948,23230,4305,93,650,1157,2966,342,2512,172,87,259681,7986,XRF1,1,10/4/2019,11:49:18,LEVAY_B,11/1/2019 21:35,~1mm accessory; with film; XRF 1
382,U1537,A,2,H,6,A,530,10.53,10.361,44592492,SHLF9921951,50,0.75,10,15,10,12,Cu,91446,1036,22766,4493,87,697,1094,2706,331,2464,124,54,261071,8293,XRF1,1,10/4/2019,11:52:27,LEVAY_B,11/1/2019 21:35,~1mm accessory; with film; XRF 1
382,U1537,A,2,H,6,A,610,10.61,10.441,44592492,SHLF9921951,50,0.75,10,15,10,12,Cu,91678,964,22671,4528,58,689,1064,2558,320,2493,179,31,262403,8216,XRF1,1,10/4/2019,11:55:33,LEVAY_B,11/1/2019 21:35,~1mm accessory; with film; XRF 1
382,U1537,A,2,H,6,A,690,10.69,10.521,44592492,SHLF9921951,50,0.75,10,15,10,12,Cu,91672,861,22732,4347,97,643,1213,2821,468,2449,130,102,260646,9051,XRF1,1,10/4/2019,11:58:42,LEVAY_B,11/1/2019 21:35,~1mm accessory; with film; XRF 1
382,U1537,A,2,H,6,A,770,10.77,10.601,44592492,SHLF9921951,50,0.75,10,15,10,12,Cu,90944,930,22693,4466,75,594,1094,2600,438,2521,150,57,258817,8168,XRF1,1,10/4/2019,12:01:48,LEVAY_B,11/1/2019 21:35,~1mm accessory; with film; XRF 1
382,U1537,A,2,H,6,A,850,10.85,10.681,44592492,SHLF9921951,50,0.75,10,15,10,12,Cu,90836,984,21462,4379,99,646,1214,2659,362,2502,135,39,259711,8631,XRF1,1,10/4/2019,12:04:59,LEVAY_B,11/1/2019 21:35,~1mm accessory; with film; XRF 1
382,U1537,A,2,H,6,A,930,10.93,10.761,44592492,SHLF9921951,50,0.75,10,15,10,12,Cu,91919,1017,23912,4307,56,735,1085,2478,374,2175,186,6,258717,8307,XRF1,1,10/4/2019,12:08:08,LEVAY_B,11/1/2019 21:35,~1mm accessory; with film; XRF 1
382,U1537,A,2,H,6,A,1010,11.01,10.841,44592492,SHLF9921951,50,0.75,10,15,10,12,Cu,92074,834,22747,4412,89,722,1114,2566,315,2230,104,19,260296,7765,XRF1,1,10/4/2019,12:11:13,LEVAY_B,11/1/2019 21:35,~1mm accessory; with film; XRF 1
382,U1537,A,2,H,6,A,1090,11.09,10.921,44592492,SHLF9921951,50,0.75,10,15,10,12,Cu,91876,1050,22215,4244,60,742,1155,2613,335,2370,149,79,261056,8356,XRF1,1,10/4/2019,12:14:19,LEVAY_B,11/1/2019 21:35,~1mm accessory; with film; XRF 1
382,U1537,A,2,H,6,A,1170,11.17,11.001,44592492,SHLF9921951,50,0.75,10,15,10,12,Cu,90772,987,22957,4326,73,603,1153,2729,427,2449,134,76,260711,7167,XRF1,1,10/4/2019,12:17:24,LEVAY_B,11/1/2019 21:35,~1mm accessory; with film; XRF 1
382,U1537,A,2,H,6,A,1250,11.25,11.081,44592492,SHLF9921951,50,0.75,10,15,10,12,Cu,91384,1024,23476,4275,130,587,1174,3036,410,2711,171,37,261043,8770,XRF1,1,10/4/2019,12:20:27,LEVAY_B,11/1/2019 21:35,~1mm accessory; with film; XRF 1
382,U1537,A,2,H,6,A,1330,11.33,11.161,44592492,SHLF9921951,50,0.75,10,14,10,12,Cu,89280,906,24040,4227,65,601,1036,2418,359,2325,137,62,260847,7037,XRF1,1,10/4/2019,12:23:34,LEVAY_B,11/1/2019 21:35,~1mm accessory; with film; XRF 1
382,U1537,A,2,H,6,A,1410,11.41,11.241,44592492,SHLF9921951,50,0.75,10,14,10,12,Cu,89627,932,22106,4242,26,505,1157,2692,394,2674,157,55,262206,8262,XRF1,1,10/4/2019,12:26:39,LEVAY_B,11/1/2019 21:35,~1mm accessory; with film; XRF 1
382,U1537,A,2,H,6,A,1490,11.49,11.321,44592492,SHLF9921951,50,0.75,10,15,10,12,Cu,92937,1140,24124,4506,135,551,1218,2976,463,2940,206,65,261939,8385,XRF1,1,10/4/2019,12:29:49,LEVAY_B,11/1/2019 21:35,~1mm accessory; with film; XRF 1
382,U1537,A,2,H,7,A,80,11.58,11.377,44592502,SHLF9921981,50,0.75,10,15,10,12,Cu,91778,912,22457,4460,49,599,1372,2537,391,2888,139,1,262612,8782,XRF1,1,10/4/2019,13:22:43,LEVAY_B,11/1/2019 21:35,~1mm accessory; with film; XRF 1
382,U1537,A,2,H,7,A,160,11.66,11.457,44592502,SHLF9921981,50,0.75,10,15,10,12,Cu,90993,1121,20617,4413,91,587,1427,2451,344,3165,198,70,262327,9002,XRF1,1,10/4/2019,13:25:57,LEVAY_B,11/1/2019 21:35,~1mm accessory; with film; XRF 1
382,U1537,A,2,H,7,A,240,11.74,11.537,44592502,SHLF9921981,50,0.75,10,14,10,12,Cu,89045,955,21489,4359,58,518,1180,2462,468,2683,181,71,262800,8544,XRF1,1,10/4/2019,13:29:04,LEVAY_B,11/1/2019 21:35,~1mm accessory; with film; XRF 1
382,U1537,A,2,H,7,A,320,11.82,11.617,44592502,SHLF9921981,50,0.75,10,15,10,12,Cu,91228,849,23656,4425,67,604,1236,2807,366,2496,139,70,267478,8526,XRF1,1,10/4/2019,13:32:12,LEVAY_B,11/1/2019 21:35,~1mm accessory; with film; XRF 1
382,U1537,A,2,H,7,A,400,11.9,11.697,44592502,SHLF9921981,50,0.75,10,15,10,12,Cu,90848,978,23484,4435,54,557,1328,2752,381,2488,125,17,262620,9208,XRF1,1,10/4/2019,13:35:22,LEVAY_B,11/1/2019 21:35,~1mm accessory; with film; XRF 1
382,U1537,A,2,H,7,A,480,11.98,11.777,44592502,SHLF9921981,50,0.75,10,15,10,12,Cu,90848,872,22007,4477,52,598,1279,2495,347,2783,217,27,261671,8873,XRF1,1,10/4/2019,13:38:30,LEVAY_B,11/1/2019 21:35,~1mm accessory; with film; XRF 1
382,U1537,A,2,H,7,A,560,12.06,11.857,44592502,SHLF9921981,50,0.75,10,15,10,12,Cu,93460,1042,21673,4391,77,563,1274,2303,296,2508,175,5,282187,8909,XRF1,1,10/4/2019,13:41:34,LEVAY_B,11/1/2019 21:35,~1mm accessory; with film; XRF 1
382,U1537,A,9,H,4,A,60,73.56,73.344,44592422,SHLF9925461,50,0.75,10,15,10,12,Cu,93672,760,9898,4639,97,1029,578,1518,166,1391,77,81,260768,8423,XRF1,1,10/8/2019,18:29:39,LEVAY_B,11/1/2019 21:33,~1mm accessory; with film; XRF 1
382,U1537,A,9,H,4,A,140,73.64,73.424,44592422,SHLF9925461,50,0.75,10,15,10,12,Cu,93981,745,9645,4557,62,1084,548,1489,166,1342,126,97,260089,8118,XRF1,1,10/8/2019,18:32:46,LEVAY_B,11/1/2019 21:33,~1mm accessory; with film; XRF 1
382,U1537,A,9,H,4,A,220,73.72,73.504,44592422,SHLF9925461,50,0.75,10,15,10,12,Cu,94549,779,9330,4560,42,1101,459,1447,108,1188,75,89,264144,7365,XRF1,1,10/8/2019,18:35:58,LEVAY_B,11/1/2019 21:33,~1mm accessory; with film; XRF 1
382,U1537,A,9,H,4,A,300,73.8,73.584,44592422,SHLF9925461,50,0.75,10,15,10,12,Cu,94681,727,9935,4775,99,1189,545,1425,140,1274,61,80,263508,7876,XRF1,1,10/8/2019,18:39:06,LEVAY_B,11/1/2019 21:33,~1mm accessory; with film; XRF 1
382,U1537,A,9,H,4,A,380,73.88,73.664,44592422,SHLF9925461,50,0.75,10,15,10,12,Cu,93921,763,9906,4589,52,1057,527,1435,106,1257,77,68,261937,8588,XRF1,1,10/8/2019,18:42:13,LEVAY_B,11/1/2019 21:33,~1mm accessory; with film; XRF 1
382,U1537,A,9,H,4,A,460,73.96,73.744,44592422,SHLF9925461,50,0.75,10,15,10,12,Cu,92596,787,9939,4458,109,1027,593,1468,161,1319,109,60,262354,8010,XRF1,1,10/8/2019,18:45:19,LEVAY_B,11/1/2019 21:33,~1mm accessory; with film; XRF 1
382,U1537,A,9,H,4,A,540,74.04,73.824,44592422,SHLF9925461,50,0.75,10,15,10,12,Cu,94651,824,10694,4569,101,1067,542,1346,121,1324,85,104,262084,8362,XRF1,1,10/8/2019,18:48:27,LEVAY_B,11/1/2019 21:33,~1mm accessory; with film; XRF 1
382,U1537,A,9,H,4,A,620,74.12,73.904,44592422,SHLF9925461,50,0.75,10,15,10,12,Cu,94546,842,9446,4674,77,1102,544,1449,179,1340,128,71,261854,7227,XRF1,1,10/8/2019,18:51:34,LEVAY_B,11/1/2019 21:33,~1mm accessory; with film; XRF 1
382,U1537,A,9,H,4,A,700,74.2,73.984,44592422,SHLF9925461,50,0.75,10,15,10,12,Cu,94473,851,10298,4647,59,1087,584,1489,168,1315,82,72,261899,8300,XRF1,1,10/8/2019,18:54:42,LEVAY_B,11/1/2019 21:33,~1mm accessory; with film; XRF 1
382,U1537,A,9,H,4,A,780,74.28,74.064,44592422,SHLF9925461,50,0.75,10,15,10,12,Cu,94474,670,10644,4727,57,980,588,1625,190,1424,144,108,263177,8026,XRF1,1,10/8/2019,18:57:52,LEVAY_B,11/1/2019 21:33,~1mm accessory; with film; XRF 1
382,U1537,A,9,H,4,A,860,74.36,74.144,44592422,SHLF9925461,50,0.75,10,15,10,12,Cu,93616,696,10350,4576,52,1113,517,1587,100,1212,82,93,261310,8303,XRF1,1,10/8/2019,19:00:58,LEVAY_B,11/1/2019 21:33,~1mm accessory; with film; XRF 1
382,U1537,A,9,H,4,A,940,74.44,74.224,44592422,SHLF9925461,50,0.75,10,15,10,12,Cu,93047,831,10257,4561,71,1004,609,1459,168,1342,82,73,260570,8653,XRF1,1,10/8/2019,19:04:04,LEVAY_B,11/1/2019 21:33,~1mm accessory; with film; XRF 1
382,U1537,A,9,H,4,A,1020,74.52,74.304,44592422,SHLF9925461,50,0.75,10,15,10,12,Cu,93546,677,12160,4629,75,877,693,1712,124,1558,108,-2,262617,9850,XRF1,1,10/8/2019,19:07:13,LEVAY_B,11/1/2019 21:33,~1mm accessory; with film; XRF 1
382,U1537,A,9,H,4,A,1100,74.6,74.384,44592422,SHLF9925461,50,0.75,10,15,10,12,Cu,93942,774,11812,4681,50,972,642,1822,238,1558,121,74,261018,9104,XRF1,1,10/8/2019,19:10:20,LEVAY_B,11/1/2019 21:33,~1mm accessory; with film; XRF 1
382,U1537,A,9,H,4,A,1180,74.68,74.464,44592422,SHLF9925461,50,0.75,10,15,10,12,Cu,94198,689,11547,4609,78,968,628,1727,206,1622,112,45,260708,10705,XRF1,1,10/8/2019,19:13:32,LEVAY_B,11/1/2019 21:33,~1mm accessory; with film; XRF 1
382,U1537,A,9,H,4,A,1260,74.76,74.544,44592422,SHLF9925461,50,0.75,10,15,10,12,Cu,93511,836,10889,4530,87,1090,532,1565,235,1350,102,58,265434,9032,XRF1,1,10/8/2019,19:16:36,LEVAY_B,11/1/2019 21:33,~1mm accessory; with film; XRF 1
382,U1537,A,9,H,4,A,1340,74.84,74.624,44592422,SHLF9925461,50,0.75,10,15,10,12,Cu,93545,736,10417,4730,70,1073,605,1494,117,1349,90,73,263818,9179,XRF1,1,10/8/2019,19:19:43,LEVAY_B,11/1/2019 21:33,~1mm accessory; with film; XRF 1
382,U1537,A,9,H,4,A,1420,74.92,74.704,44592422,SHLF9925461,50,0.75,10,15,10,12,Cu,94031,714,11104,4675,67,1011,527,1543,152,1333,111,108,261574,10748,XRF1,1,10/8/2019,19:22:47,LEVAY_B,11/1/2019 21:33,~1mm accessory; with film; XRF 1
382,U1537,A,9,H,5,A,50,75.06,74.771,44592432,SHLF9925491,50,0.75,10,15,10,12,Cu,92608,798,9394,4601,103,1064,513,1367,157,1230,70,70,259588,9143,XRF1,1,10/9/2019,10:49:28,LEVAY_B,11/1/2019 21:34,~1mm accessory; with film; XRF 1
382,U1537,A,9,H,5,A,130,75.14,74.851,44592432,SHLF9925491,50,0.75,10,15,10,12,Cu,93903,693,9641,4697,84,1076,549,1416,137,1168,103,52,258567,9167,XRF1,1,10/9/2019,10:52:35,LEVAY_B,11/1/2019 21:34,~1mm accessory; with film; XRF 1
382,U1537,A,9,H,5,A,210,75.22,74.931,44592432,SHLF9925491,50,0.75,10,15,10,12,Cu,94358,848,8750,4714,38,1158,527,1430,94,1231,120,142,261952,8815,XRF1,1,10/9/2019,10:55:43,LEVAY_B,11/1/2019 21:34,~1mm accessory; with film; XRF 1
382,U1537,A,9,H,5,A,290,75.3,75.011,44592432,SHLF9925491,50,0.75,10,15,10,12,Cu,94811,724,9115,4756,96,1072,514,1441,141,1209,143,25,261437,8230,XRF1,1,10/9/2019,10:58:51,LEVAY_B,11/1/2019 21:34,~1mm accessory; with film; XRF 1
382,U1537,A,9,H,5,A,370,75.38,75.091,44592432,SHLF9925491,50,0.75,10,15,10,12,Cu,94543,916,9263,4679,73,1067,522,1426,125,1179,130,39,261627,8537,XRF1,1,10/9/2019,11:01:56,LEVAY_B,11/1/2019 21:34,~1mm accessory; with film; XRF 1
382,U1537,A,9,H,5,A,450,75.46,75.171,44592432,SHLF9925491,50,0.75,10,15,10,12,Cu,93839,892,9151,4512,105,1122,628,1434,133,1168,158,112,258079,9547,XRF1,1,10/9/2019,11:05:04,LEVAY_B,11/1/2019 21:34,~1mm accessory; with film; XRF 1
382,U1537,A,9,H,5,A,530,75.54,75.251,44592432,SHLF9925491,50,0.75,10,15,10,12,Cu,94135,871,9678,4626,86,1038,580,1438,131,1289,90,44,260948,9735,XRF1,1,10/9/2019,11:08:14,LEVAY_B,11/1/2019 21:34,~1mm accessory; with film; XRF 1
382,U1537,A,9,H,5,A,610,75.62,75.331,44592432,SHLF9925491,50,0.75,10,15,10,12,Cu,94796,765,9576,4729,90,1122,574,1495,198,1225,107,49,262482,9716,XRF1,1,10/9/2019,11:11:20,LEVAY_B,11/1/2019 21:34,~1mm accessory; with film; XRF 1
382,U1537,A,9,H,5,A,690,75.7,75.411,44592432,SHLF9925491,50,0.75,10,15,10,12,Cu,95061,744,8998,4642,74,1071,632,1505,135,1267,135,51,264083,10152,XRF1,1,10/9/2019,11:14:30,LEVAY_B,11/1/2019 21:34,~1mm accessory; with film; XRF 1
382,U1537,A,9,H,5,A,770,75.78,75.491,44592432,SHLF9925491,50,0.75,10,15,10,12,Cu,94825,882,10370,4515,48,1018,647,1462,125,1384,66,48,263205,10284,XRF1,1,10/9/2019,11:17:41,LEVAY_B,11/1/2019 21:34,~1mm accessory; with film; XRF 1
382,U1537,A,9,H,5,A,850,75.86,75.571,44592432,SHLF9925491,50,0.75,10,15,10,12,Cu,94167,830,10407,4628,86,1057,653,1393,169,1306,89,48,259985,10168,XRF1,1,10/9/2019,11:20:47,LEVAY_B,11/1/2019 21:34,~1mm accessory; with film; XRF 1
382,U1537,A,9,H,5,A,930,75.94,75.651,44592432,SHLF9925491,50,0.75,10,15,10,12,Cu,94328,792,8734,4539,66,1073,552,1395,112,1245,105,103,259035,10528,XRF1,1,10/9/2019,11:24:00,LEVAY_B,11/1/2019 21:34,~1mm accessory; with film; XRF 1
382,U1537,A,9,H,5,A,1010,76.02,75.731,44592432,SHLF9925491,50,0.75,10,15,10,12,Cu,94522,826,8522,4602,92,1167,602,1301,160,1038,108,62,261112,9160,XRF1,1,10/9/2019,11:27:10,LEVAY_B,11/1/2019 21:34,~1mm accessory; with film; XRF 1
382,U1537,A,9,H,5,A,1090,76.1,75.811,44592432,SHLF9925491,50,0.75,10,15,10,12,Cu,94675,737,9826,4696,128,1094,616,1448,134,1167,90,57,263613,9899,XRF1,1,10/9/2019,11:30:19,LEVAY_B,11/1/2019 21:34,~1mm accessory; with film; XRF 1
382,U1537,A,9,H,5,A,1170,76.18,75.891,44592432,SHLF9925491,50,0.75,10,15,10,12,Cu,94868,934,9691,4705,44,1136,671,1463,165,1399,110,31,263909,10702,XRF1,1,10/9/2019,11:33:25,LEVAY_B,11/1/2019 21:34,~1mm accessory; with film; XRF 1
382,U1537,A,9,H,5,A,1250,76.26,75.971,44592432,SHLF9925491,50,0.75,10,15,10,12,Cu,94379,763,10796,4600,63,1068,735,1512,213,1312,77,28,261786,10823,XRF1,1,10/9/2019,11:36:36,LEVAY_B,11/1/2019 21:34,~1mm accessory; with film; XRF 1
382,U1537,A,9,H,5,A,1330,76.34,76.051,44592432,SHLF9925491,50,0.75,10,15,10,12,Cu,93544,892,9395,4834,70,1131,693,1510,70,1196,87,70,260621,10452,XRF1,1,10/9/2019,11:39:42,LEVAY_B,11/1/2019 21:34,~1mm accessory; with film; XRF 1
382,U1537,A,9,H,5,A,1410,76.42,76.131,44592432,SHLF9925491,50,0.75,10,15,10,12,Cu,94377,735,11496,4844,97,994,776,1688,164,1534,102,61,266560,13721,XRF1,1,10/9/2019,11:42:51,LEVAY_B,11/1/2019 21:34,~1mm accessory; with film; XRF 1
382,U1537,A,9,H,5,A,1490,76.5,76.211,44592432,SHLF9925491,50,0.75,10,15,10,12,Cu,98709,821,11218,4875,96,994,743,1665,190,1454,112,51,292666,13592,XRF1,1,10/9/2019,11:46:00,LEVAY_B,11/1/2019 21:34,~1mm accessory; with film; XRF 1
382,U1537,A,9,H,6,A,70,76.58,76.219,44592442,SHLF9925521,50,0.75,10,15,10,12,Cu,93445,829,12282,4640,96,930,886,1750,123,1756,128,41,260654,14253,XRF1,1,10/9/2019,13:32:59,LEVAY_B,11/1/2019 21:34,~1mm accessory; with film; XRF 1
382,U1537,A,9,H,6,A,150,76.66,76.299,44592442,SHLF9925521,50,0.75,10,15,10,12,Cu,94678,743,11855,4521,105,1108,812,1670,211,1451,74,58,259575,12808,XRF1,1,10/9/2019,13:36:06,LEVAY_B,11/1/2019 21:34,~1mm accessory; with film; XRF 1
382,U1537,A,9,H,6,A,230,76.74,76.379,44592442,SHLF9925521,50,0.75,10,15,10,12,Cu,94896,872,13961,4502,111,898,979,2055,165,1743,118,44,261272,17150,XRF1,1,10/9/2019,13:39:13,LEVAY_B,11/1/2019 21:34,~1mm accessory; with film; XRF 1
382,U1537,A,9,H,6,A,310,76.82,76.459,44592442,SHLF9925521,50,0.75,10,15,10,12,Cu,94236,656,14276,4724,67,817,1019,2011,162,1844,145,112,261591,17632,XRF1,1,10/9/2019,13:42:23,LEVAY_B,11/1/2019 21:34,~1mm accessory; with film; XRF 1
382,U1537,A,9,H,6,A,390,76.9,76.539,44592442,SHLF9925521,50,0.75,10,15,10,12,Cu,94583,764,13894,4362,91,891,947,2016,251,1902,163,104,261822,16794,XRF1,1,10/9/2019,13:45:30,LEVAY_B,11/1/2019 21:34,~1mm accessory; with film; XRF 1
382,U1537,A,9,H,6,A,470,76.98,76.619,44592442,SHLF9925521,50,0.75,10,15,10,12,Cu,94236,872,14587,4738,152,963,892,1701,255,1689,112,84,259421,13341,XRF1,1,10/9/2019,13:48:39,LEVAY_B,11/1/2019 21:34,~1mm accessory; with film; XRF 1
382,U1537,A,9,H,6,A,550,77.06,76.699,44592442,SHLF9925521,50,0.75,10,15,10,12,Cu,94115,661,12321,4622,67,930,836,1762,233,1731,133,36,260848,13732,XRF1,1,10/9/2019,13:51:49,LEVAY_B,11/1/2019 21:34,~1mm accessory; with film; XRF 1
382,U1537,A,9,H,6,A,630,77.14,76.779,44592442,SHLF9925521,50,0.75,10,15,10,12,Cu,94370,847,12260,4612,97,967,852,1652,152,1760,118,43,261771,14111,XRF1,1,10/9/2019,13:54:58,LEVAY_B,11/1/2019 21:34,~1mm accessory; with film; XRF 1
382,U1537,A,9,H,6,A,710,77.22,76.859,44592442,SHLF9925521,50,0.75,10,15,10,12,Cu,94497,766,12094,4611,56,1014,796,1590,203,1556,67,74,261615,11789,XRF1,1,10/9/2019,13:58:08,LEVAY_B,11/1/2019 21:34,~1mm accessory; with film; XRF 1
382,U1537,A,9,H,6,A,790,77.3,76.939,44592442,SHLF9925521,50,0.75,10,15,10,12,Cu,94334,803,13001,4694,70,885,887,1623,241,1912,107,80,262587,12613,XRF1,1,10/9/2019,14:01:20,LEVAY_B,11/1/2019 21:34,~1mm accessory; with film; XRF 1
382,U1537,A,9,H,6,A,870,77.38,77.019,44592442,SHLF9925521,50,0.75,10,15,10,12,Cu,93928,651,12640,4689,65,892,870,1521,207,1778,123,57,259827,11208,XRF1,1,10/9/2019,14:04:30,LEVAY_B,11/1/2019 21:34,~1mm accessory; with film; XRF 1
382,U1537,A,9,H,6,A,950,77.46,77.099,44592442,SHLF9925521,50,0.75,10,15,10,12,Cu,93460,916,12766,4527,71,881,828,1596,238,1786,126,66,259055,11809,XRF1,1,10/9/2019,14:07:37,LEVAY_B,11/1/2019 21:34,~1mm accessory; with film; XRF 1
382,U1537,A,9,H,6,A,1030,77.54,77.179,44592442,SHLF9925521,50,0.75,10,15,10,12,Cu,94168,733,14689,4551,127,760,925,1800,260,1984,72,43,261654,13130,XRF1,1,10/9/2019,14:10:45,LEVAY_B,11/1/2019 21:34,~1mm accessory; with film; XRF 1
382,U1537,A,9,H,6,A,1110,77.62,77.259,44592442,SHLF9925521,50,0.75,10,15,10,12,Cu,93951,787,13751,4684,75,784,883,1795,231,1665,157,95,260956,14864,XRF1,1,10/9/2019,14:13:55,LEVAY_B,11/1/2019 21:34,~1mm accessory; with film; XRF 1
382,U1537,A,9,H,6,A,1190,77.7,77.339,44592442,SHLF9925521,50,0.75,10,15,10,12,Cu,93980,924,12460,4538,86,869,941,1529,182,1751,134,71,260237,12138,XRF1,1,10/9/2019,14:17:08,LEVAY_B,11/1/2019 21:34,~1mm accessory; with film; XRF 1
382,U1537,A,9,H,6,A,1270,77.78,77.419,44592442,SHLF9925521,50,0.75,10,15,10,12,Cu,93054,935,13299,4521,92,840,1102,1649,255,1825,154,-5,262292,12088,XRF1,1,10/9/2019,14:20:16,LEVAY_B,11/1/2019 21:34,~1mm accessory; with film; XRF 1
382,U1537,A,9,H,6,A,1350,77.86,77.499,44592442,SHLF9925521,50,0.75,10,15,10,12,Cu,92491,774,13094,4582,104,938,831,1531,286,1690,151,62,260490,11081,XRF1,1,10/9/2019,14:23:26,LEVAY_B,11/1/2019 21:34,~1mm accessory; with film; XRF 1
382,U1537,A,9,H,6,A,1430,77.94,77.579,44592442,SHLF9925521,50,0.75,10,15,10,12,Cu,93634,843,12513,4645,93,867,888,1665,161,1719,110,85,270343,12247,XRF1,1,10/9/2019,14:26:34,LEVAY_B,11/1/2019 21:34,~1mm accessory; with film; XRF 1
382,U1537,A,26,H,6,A,40,236.16,236.033,44720602,SHLF9934881,50,0.75,10,13,10,12,Cu,58437,527,8845,2774,24,299,533,1046,134,1102,105,39,193179,9774,XRF,1,5/3/2021,20:59:17,HERTZBERG,5/18/2021 18:57,
382,U1537,A,26,H,6,A,200,236.32,236.193,44720602,SHLF9934881,50,0.75,10,13,10,12,Cu,58665,541,9124,2767,48,287,631,1212,135,1244,43,62,197271,12536,XRF,1,5/3/2021,21:02:33,HERTZBERG,5/18/2021 18:57,
382,U1537,A,26,H,6,A,360,236.48,236.353,44720602,SHLF9934881,50,0.75,10,13,10,12,Cu,56734,641,11755,2665,60,215,661,1260,169,1440,67,19,193007,9064,XRF,1,5/3/2021,21:05:49,HERTZBERG,5/18/2021 18:57,
382,U1537,A,26,H,6,A,520,236.64,236.513,44720602,SHLF9934881,50,0.75,10,13,10,12,Cu,59122,621,11928,2781,43,288,690,1373,197,1479,145,104,195886,7718,XRF,1,5/3/2021,21:09:04,HERTZBERG,5/18/2021 18:57,
382,U1537,A,26,H,6,A,680,236.8,236.673,44720602,SHLF9934881,50,0.75,10,13,10,12,Cu,57648,572,11841,2766,58,257,641,1381,150,1377,78,48,194929,6882,XRF,1,5/3/2021,21:12:20,HERTZBERG,5/18/2021 18:57,
382,U1537,A,26,H,6,A,840,236.96,236.833,44720602,SHLF9934881,50,0.75,10,13,10,12,Cu,58613,487,9641,2727,85,279,596,1308,169,1363,120,43,196768,8136,XRF,1,5/3/2021,21:15:36,HERTZBERG,5/18/2021 18:57,
382,U1537,A,26,H,7,A,40,237.13,236.981,44720612,SHLF9934911,50,0.75,10,13,10,12,Cu,58230,459,9731,2796,63,300,545,1163,165,1261,110,23,194386,7794,XRF,1,5/3/2021,18:29:12,HERTZBERG,5/18/2021 18:57,
382,U1537,A,26,H,7,A,200,237.29,237.141,44720612,SHLF9934911,50,0.75,10,13,10,12,Cu,57918,658,12617,2732,68,177,712,1555,156,1618,131,89,192500,9459,XRF,1,5/3/2021,18:32:27,HERTZBERG,5/18/2021 18:57,
382,U1537,A,26,H,7,A,360,237.45,237.301,44720612,SHLF9934911,50,0.75,10,13,10,12,Cu,58559,665,10805,2800,67,254,592,1494,183,1434,112,83,194234,7924,XRF,1,5/3/2021,18:35:42,HERTZBERG,5/18/2021 18:57,
382,U1537,A,26,H,7,A,520,237.61,237.461,44720612,SHLF9934911,50,0.75,10,13,10,12,Cu,59850,429,6730,2866,46,464,436,976,111,1088,96,35,196360,5005,XRF,1,5/3/2021,18:38:57,HERTZBERG,5/18/2021 18:57,
382,U1537,A,26,H,8,A,160,237.8,237.639,44720622,SHLF9934941,50,0.75,10,13,10,12,Cu,58231,532,6924,2779,98,456,349,958,134,952,56,48,193593,5209,XRF,1,5/3/2021,19:46:58,HERTZBERG,5/18/2021 18:57,
382,U1537,A,26,H,8,A,320,237.96,237.799,44720622,SHLF9934941,50,0.75,10,13,10,12,Cu,59786,494,7221,2904,60,503,363,887,133,857,64,37,195050,5086,XRF,1,5/3/2021,19:50:13,HERTZBERG,5/18/2021 18:57,
382,U1537,A,26,H,8,A,480,238.12,237.959,44720622,SHLF9934941,50,0.75,10,13,10,12,Cu,58936,604,7140,2853,51,485,338,974,88,953,77,47,193446,5328,XRF,1,5/3/2021,19:53:29,HERTZBERG,5/18/2021 18:57,
382,U1537,A,26,H,8,A,640,238.28,238.119,44720622,SHLF9934941,50,0.75,10,13,10,12,Cu,59214,533,6141,2751,73,526,307,784,80,870,38,43,194013,4768,XRF,1,5/3/2021,19:56:44,HERTZBERG,5/18/2021 18:57,
382,U1537,A,26,H,8,A,800,238.44,238.279,44720622,SHLF9934941,50,0.75,10,13,10,12,Cu,59323,572,5835,2844,22,472,312,782,78,812,59,53,194660,5139,XRF,1,5/3/2021,20:00:00,HERTZBERG,5/18/2021 18:57,
382,U1537,A,26,H,8,A,960,238.6,238.439,44720622,SHLF9934941,50,0.75,10,13,10,12,Cu,58931,536,6653,2818,69,412,360,912,111,983,102,39,195860,5687,XRF,1,5/3/2021,20:03:15,HERTZBERG,5/18/2021 18:57,
382,U1537,A,26,H,8,A,1120,238.76,238.599,44720622,SHLF9934941,50,0.75,10,13,10,12,Cu,59254,427,8128,2700,73,376,445,996,156,1079,80,60,195901,7094,XRF,1,5/3/2021,20:06:31,HERTZBERG,5/18/2021 18:57,
382,U1537,A,26,H,8,A,1280,238.92,238.759,44720622,SHLF9934941,50,0.75,10,13,10,12,Cu,59201,465,8182,2776,45,372,492,1053,134,1040,85,40,196112,7741,XRF,1,5/3/2021,20:09:47,HERTZBERG,5/18/2021 18:57,
382,U1537,A,26,H,8,A,1440,239.08,238.919,44720622,SHLF9934941,50,0.75,10,13,10,12,Cu,59650,540,8445,2973,70,391,430,965,117,1026,30,18,195600,7781,XRF,1,5/3/2021,20:13:03,HERTZBERG,5/18/2021 18:57,
382,U1537,A,27,F,1,A,160,240.16,240.16,44720632,SHLF9935241,50,0.75,10,13,10,12,Cu,58688,518,10253,2708,68,309,653,1414,144,1532,89,6,194050,7724,XRF,1,5/3/2021,17:34:11,HERTZBERG,5/18/2021 18:57,
382,U1537,A,27,F,1,A,320,240.32,240.32,44720632,SHLF9935241,50,0.75,10,13,10,12,Cu,58893,633,12852,2798,79,287,537,1292,219,1376,84,65,195920,7284,XRF,1,5/3/2021,17:37:25,HERTZBERG,5/18/2021 18:57,
382,U1537,A,27,F,1,A,480,240.48,240.48,44720632,SHLF9935241,50,0.75,10,13,10,12,Cu,58080,552,10544,2789,32,280,588,1345,106,1366,93,5,194073,8155,XRF,1,5/3/2021,17:40:40,HERTZBERG,5/18/2021 18:57,
382,U1537,A,27,F,1,A,640,240.64,240.64,44720632,SHLF9935241,50,0.75,10,13,10,12,Cu,58916,576,10477,2857,76,368,556,1177,164,1289,124,82,195516,8536,XRF,1,5/3/2021,17:43:54,HERTZBERG,5/18/2021 18:57,
382,U1537,A,27,F,1,A,800,240.8,240.8,44720632,SHLF9935241,50,0.75,10,13,10,12,Cu,58707,538,9062,2799,65,384,601,1184,128,1241,113,50,195885,8171,XRF,1,5/3/2021,17:47:08,HERTZBERG,5/18/2021 18:57,
382,U1537,A,27,F,1,A,960,240.96,240.96,44720632,SHLF9935241,50,0.75,10,13,10,12,Cu,58679,454,10519,2712,53,277,576,1138,123,1296,54,40,195921,9169,XRF,1,5/3/2021,17:50:22,HERTZBERG,5/18/2021 18:57,
382,U1537,A,27,F,1,A,1120,241.12,241.12,44720632,SHLF9935241,50,0.75,10,13,10,12,Cu,59161,485,9867,2771,61,317,599,1109,152,1327,75,2,197676,10363,XRF,1,5/3/2021,17:53:37,HERTZBERG,5/18/2021 18:57,
382,U1537,A,27,F,1,A,1280,241.28,241.28,44720632,SHLF9935241,50,0.75,10,13,10,12,Cu,59114,498,10405,2878,60,242,729,1323,182,1486,125,19,200822,11907,XRF,1,5/3/2021,17:56:51,HERTZBERG,5/18/2021 18:57,
382,U1537,A,27,F,1,A,1430,241.43,241.43,44720632,SHLF9935241,50,0.75,10,13,10,12,Cu,57727,584,11833,2742,43,256,685,1330,198,1524,102,53,201158,10767,XRF,1,5/3/2021,18:00:05,HERTZBERG,5/18/2021 18:57,
382,U1537,A,27,F,2,A,100,241.6,241.578,44720642,SHLF9935271,50,0.75,10,13,10,12,Cu,55792,668,11556,2630,27,261,730,1183,190,1453,96,18,194609,8094,XRF,1,5/3/2021,15:46:29,HERTZBERG,5/18/2021 18:57,
382,U1537,A,27,F,2,A,260,241.76,241.738,44720642,SHLF9935271,50,0.75,10,13,10,12,Cu,57659,830,11406,2839,55,201,766,1245,254,1790,117,37,194599,7547,XRF,1,5/3/2021,15:49:42,HERTZBERG,5/18/2021 18:57,
382,U1537,A,27,F,2,A,420,241.92,241.898,44720642,SHLF9935271,50,0.75,10,13,10,12,Cu,57823,611,13054,2631,69,245,602,1280,202,1510,71,31,193560,8169,XRF,1,5/3/2021,15:52:56,HERTZBERG,5/18/2021 18:57,
382,U1537,A,27,F,2,A,580,242.08,242.058,44720642,SHLF9935271,50,0.75,10,13,10,12,Cu,59328,507,10078,2845,65,300,601,1209,179,1403,133,82,196992,7764,XRF,1,5/3/2021,15:56:09,HERTZBERG,5/18/2021 18:57,
382,U1537,A,27,F,2,A,740,242.24,242.218,44720642,SHLF9935271,50,0.75,10,13,10,12,Cu,59226,488,10684,2819,80,291,645,1211,153,1281,90,82,197517,6986,XRF,1,5/3/2021,15:59:23,HERTZBERG,5/18/2021 18:57,
382,U1537,A,27,F,2,A,900,242.4,242.378,44720642,SHLF9935271,50,0.75,10,13,10,12,Cu,58313,532,8353,2805,65,356,499,1037,166,1217,99,51,197769,6261,XRF,1,5/3/2021,16:02:37,HERTZBERG,5/18/2021 18:57,
382,U1537,A,27,F,2,A,1060,242.56,242.538,44720642,SHLF9935271,50,0.75,10,13,10,12,Cu,57288,501,7864,2787,37,356,510,902,139,1243,96,51,194754,6066,XRF,1,5/3/2021,16:05:51,HERTZBERG,5/18/2021 18:57,
382,U1537,A,27,F,2,A,1240,242.74,242.718,44720642,SHLF9935271,50,0.75,10,13,10,12,Cu,58987,549,9425,2775,63,336,580,990,161,1335,100,80,196058,6423,XRF,1,5/3/2021,16:09:06,HERTZBERG,5/18/2021 18:57,
382,U1537,A,27,F,2,A,1400,242.9,242.878,44720642,SHLF9935271,50,0.75,10,13,10,12,Cu,59028,486,8696,2771,64,339,609,1076,166,1309,84,43,193801,7267,XRF,1,5/3/2021,16:12:20,HERTZBERG,5/18/2021 18:57,
382,U1537,A,27,F,3,A,120,243.13,243.087,44720652,SHLF9935301,50,0.75,10,13,10,12,Cu,57883,519,9998,2679,39,327,608,986,149,1360,109,-13,193177,7173,XRF,1,5/3/2021,14:20:30,HERTZBERG,5/18/2021 18:57,
382,U1537,A,27,F,3,A,280,243.29,243.247,44720652,SHLF9935301,50,0.75,10,13,10,12,Cu,59377,500,8983,2781,44,330,593,1045,127,1366,112,41,195339,8000,XRF,1,5/3/2021,14:23:43,HERTZBERG,5/18/2021 18:57,
382,U1537,A,27,F,3,A,445,243.455,243.412,44720652,SHLF9935301,50,0.75,10,13,10,12,Cu,58049,516,10530,2761,58,319,537,1038,181,1324,102,45,193522,8372,XRF,1,5/3/2021,14:26:55,HERTZBERG,5/18/2021 18:57,
382,U1537,A,27,F,3,A,600,243.61,243.567,44720652,SHLF9935301,50,0.75,10,13,10,12,Cu,59262,555,10507,2780,66,311,591,1163,152,1414,124,87,195926,9451,XRF,1,5/3/2021,14:30:08,HERTZBERG,5/18/2021 18:57,
382,U1537,A,27,F,3,A,760,243.77,243.727,44720652,SHLF9935301,50,0.75,10,13,10,12,Cu,59194,462,10976,2935,30,290,654,1008,150,1348,69,3,197455,8449,XRF,1,5/3/2021,14:33:20,HERTZBERG,5/18/2021 18:57,
382,U1537,A,27,F,3,A,920,243.93,243.887,44720652,SHLF9935301,50,0.75,10,13,10,12,Cu,59060,567,9855,2767,62,330,657,1059,173,1365,145,34,197214,10316,XRF,1,5/3/2021,14:36:33,HERTZBERG,5/18/2021 18:57,
382,U1537,A,27,F,3,A,1080,244.09,244.047,44720652,SHLF9935301,50,0.75,10,13,10,12,Cu,59579,416,9572,2761,70,254,750,1122,188,1482,109,19,196748,12694,XRF,1,5/3/2021,14:39:46,HERTZBERG,5/18/2021 18:57,
382,U1537,A,27,F,4,A,160,244.27,244.211,44720662,SHLF9935331,50,0.75,10,13,10,12,Cu,58627,529,10046,2803,75,277,759,1154,188,1713,109,60,196376,12574,XRF,1,5/3/2021,13:24:27,HERTZBERG,5/18/2021 18:57,
382,U1537,A,27,F,4,A,320,244.43,244.371,44720662,SHLF9935331,50,0.75,10,13,10,12,Cu,58014,541,12382,2657,66,184,794,1254,189,1596,165,51,195196,10076,XRF,1,5/3/2021,13:27:39,HERTZBERG,5/18/2021 18:57,
382,U1537,A,27,F,4,A,480,244.59,244.531,44720662,SHLF9935331,50,0.75,10,13,10,12,Cu,58035,473,10626,2716,46,308,636,982,124,1210,112,75,194452,6801,XRF,1,5/3/2021,13:30:51,HERTZBERG,5/18/2021 18:57,
382,U1537,A,29,F,1,A,145,249.745,249.745,44720672,SHLF9935971,50,0.75,10,13,10,12,Cu,58067,643,12400,2634,70,207,762,1501,187,1654,126,21,196399,8360,XRF,1,5/3/2021,12:27:50,HERTZBERG,5/18/2021 18:57,
382,U1537,A,29,F,1,A,300,249.9,249.9,44720672,SHLF9935971,50,0.75,10,13,10,12,Cu,58661,583,12070,2897,76,252,659,1265,175,1339,98,42,193571,8012,XRF,1,5/3/2021,12:31:01,HERTZBERG,5/18/2021 18:57,
382,U1537,A,29,F,1,A,460,250.06,250.06,44720672,SHLF9935971,50,0.75,10,13,10,12,Cu,59207,509,8301,2873,103,434,480,965,160,1173,58,63,193447,6935,XRF,1,5/3/2021,12:34:12,HERTZBERG,5/18/2021 18:57,
382,U1537,A,29,F,1,A,620,250.22,250.22,44720672,SHLF9935971,50,0.75,10,13,10,12,Cu,59570,424,9356,2795,82,367,532,1018,177,1160,82,85,195956,8144,XRF,1,5/3/2021,12:37:24,HERTZBERG,5/18/2021 18:57,
382,U1537,A,29,F,1,A,780,250.38,250.38,44720672,SHLF9935971,50,0.75,10,13,10,12,Cu,59390,443,10114,2852,51,255,674,1139,221,1398,78,66,195625,12701,XRF,1,5/3/2021,12:40:35,HERTZBERG,5/18/2021 18:57,
382,U1537,A,29,F,1,A,940,250.54,250.54,44720672,SHLF9935971,50,0.75,10,13,10,12,Cu,56832,595,10740,2618,31,245,773,1191,150,1479,153,58,194895,13718,XRF,1,5/3/2021,12:43:47,HERTZBERG,5/18/2021 18:57,
382,U1537,A,29,F,1,A,1100,250.7,250.7,44720672,SHLF9935971,50,0.75,10,13,10,12,Cu,57320,503,12604,2676,86,237,915,1225,242,1564,102,28,192255,12225,XRF,1,5/3/2021,12:46:58,HERTZBERG,5/18/2021 18:57,
382,U1537,A,29,F,1,A,1260,250.86,250.86,44720672,SHLF9935971,50,0.75,10,13,10,12,Cu,57878,548,13410,2643,77,254,753,1120,240,1417,82,41,193887,7040,XRF,1,5/3/2021,12:50:09,HERTZBERG,5/18/2021 18:57,
382,U1537,A,29,F,1,A,1420,251.02,251.02,44720672,SHLF9935971,50,0.75,10,13,10,12,Cu,57380,701,12193,2738,56,223,817,1526,192,1629,119,13,192953,7814,XRF,1,5/3/2021,12:53:21,HERTZBERG,5/18/2021 18:57,
382,U1537,A,29,F,2,A,100,251.2,251.155,44720682,SHLF9936001,50,0.75,10,13,10,12,Cu,56493,726,13456,2709,46,191,819,1421,226,1508,97,21,191263,6575,XRF,1,5/3/2021,10:52:59,HERTZBERG,5/18/2021 18:57,
382,U1537,A,29,F,2,A,260,251.36,251.315,44720682,SHLF9936001,50,0.75,10,13,10,12,Cu,56667,750,13459,2626,49,155,845,1567,247,1499,151,54,192179,7189,XRF,1,5/3/2021,10:56:09,HERTZBERG,5/18/2021 18:57,
382,U1537,A,29,F,2,A,420,251.52,251.475,44720682,SHLF9936001,50,0.75,10,13,10,12,Cu,56437,853,13269,2577,70,186,800,1437,239,1633,95,66,192525,6651,XRF,1,5/3/2021,10:59:19,HERTZBERG,5/18/2021 18:57,
382,U1537,A,29,F,2,A,580,251.68,251.635,44720682,SHLF9936001,50,0.75,10,13,10,12,Cu,57705,686,14120,2727,68,172,837,1583,214,1617,116,13,196569,7909,XRF,1,5/3/2021,11:02:28,HERTZBERG,5/18/2021 18:57,
382,U1537,A,29,F,2,A,740,251.84,251.795,44720682,SHLF9936001,50,0.75,10,13,10,12,Cu,57039,646,13486,2677,44,190,761,1512,187,1529,116,34,194400,7095,XRF,1,5/3/2021,11:05:39,HERTZBERG,5/18/2021 18:57,
382,U1537,A,29,F,2,A,900,252,251.955,44720682,SHLF9936001,50,0.75,10,13,10,12,Cu,56858,569,11650,2624,87,239,618,1561,162,1481,116,29,194653,6681,XRF,1,5/3/2021,11:08:49,HERTZBERG,5/18/2021 18:57,
382,U1537,A,29,F,2,A,1060,252.16,252.115,44720682,SHLF9936001,50,0.75,10,13,10,12,Cu,57717,526,10593,2815,88,275,712,1347,180,1539,116,35,192220,7469,XRF,1,5/3/2021,11:11:59,HERTZBERG,5/18/2021 18:57,
382,U1537,A,29,F,2,A,1220,252.32,252.275,44720682,SHLF9936001,50,0.75,10,13,10,12,Cu,57808,398,11667,2703,64,277,714,1229,180,1469,111,2,192698,8206,XRF,1,5/3/2021,11:15:09,HERTZBERG,5/18/2021 18:57,
382,U1537,A,29,F,2,A,1380,252.48,252.435,44720682,SHLF9936001,50,0.75,10,13,10,12,Cu,58474,540,9556,2685,80,358,614,1131,148,1309,100,107,192827,8024,XRF,1,5/3/2021,11:18:19,HERTZBERG,5/18/2021 18:57,
382,U1537,A,29,F,2,A,1500,252.6,252.555,44720682,SHLF9936001,50,0.75,10,13,10,12,Cu,59278,534,9603,2768,71,265,604,1210,168,1456,94,39,195291,8019,XRF,1,5/3/2021,11:20:42,HERTZBERG,5/18/2021 18:57,